time,gx,gy,gz,ax,ay,az
1651171056.4940407,-0.021837920938649752,-0.03342267168049444,-0.023835291756209184,0.2376245147705078,-0.16639701538085935,9.979631069946288
1651171056.5040474,-0.018642127630554665,-0.035819516661565756,-0.024101607865217107,0.6057330200195312,0.08080430603027343,9.8311905670166
1651171056.6040487,-0.017044230976507122,-0.021038972611625982,-0.0346210941710301,0.3393780853271484,-0.09457096557617187,9.803058697509766
1651171056.624049,-0.016378440703987314,-0.02503371424674484,-0.03382214584400632,0.6063315704345703,-0.29927520751953124,9.7545761138916
1651171056.634039,-0.010652644360316953,-0.01890844373956259,-0.034088461953014244,0.5662286926269531,0.1388636962890625,10.034697708129881
1651171056.644049,-0.015845808485971467,-0.014647385995435809,-0.03528688444354991,0.48662148742675776,-0.28790274963378903,9.8449572265625
1651171056.6540391,-0.010519486305812991,-0.013582121559404116,-0.037417413315613296,0.3363853332519531,-0.06464344482421874,9.93952819213867
1651171056.6640487,-0.010785802414820914,-0.015845808485971467,-0.037550571370117254,0.35314474487304687,-0.15382745666503905,9.77492682800293
1651171056.6740396,-0.008921589651765448,-0.019840550121090324,-0.03954794218767669,0.527322915649414,-0.07900865478515624,9.962273107910155
1651171056.6840484,-0.013315805450396189,-0.016378440703987314,-0.037417413315613296,0.6440402465820312,-0.5398924743652344,9.877877499389648
1651171056.6940398,-0.004394215798630743,-0.0083889574337496,-0.03715109720660537,0.6069301208496093,0.12150573425292968,9.916783276367187
1651171056.7040482,-0.010519486305812991,-0.0035952674716069714,-0.03715109720660537,0.4010287780761719,-0.2753331909179687,9.900622415161132
1651171056.71404,-0.00625842856168621,-0.005459480234662438,-0.037417413315613296,0.22565350646972654,-0.19632453613281248,9.859322436523437
1651171056.724048,-0.005326322180158476,-0.0111852765783328,-0.038482677751644996,0.34715924072265625,-0.10295067138671875,9.867702142333984
1651171056.7340403,-0.005326322180158476,-0.015446334322459582,-0.039414784133172724,0.5853823059082031,-0.04189852905273437,9.90241806640625
1651171056.7440476,-0.006391586616190171,-0.00905474770626941,-0.03901530996966084,0.7338228088378905,-0.3381809844970703,9.87727894897461
1651171056.7540405,-0.0031957933080950856,0.0003994741635118857,-0.03994741635118857,0.5746083984375,-0.26874913635253905,9.85692823486328
1651171056.7640474,-0.0010652644360316951,0.005060006071150552,-0.03821636164263707,0.3393780853271484,0.002992752075195312,9.891045608520507
1651171056.7740407,-0.005459480234662438,0.002530003035575276,-0.03795004553362914,0.21428104858398436,-0.526125814819336,9.868300692749022
1651171056.7840471,0.004793689962142629,-0.006125270507182248,-0.038482677751644996,0.3812766143798828,0.06823474731445311,9.824007962036132
1651171056.794041,0.0001331580545039619,-0.007590009106725828,-0.03954794218767669,0.5363011718749999,-0.20530279235839843,9.993996279907225
1651171056.8040469,0.003994741635118857,-0.006391586616190171,-0.04061320662370838,0.8116343627929687,-0.12210428466796874,9.790489138793944
1651171056.8140411,0.0042610577441267805,0.007590009106725828,-0.04127899689622819,0.5626373901367188,-0.2932897033691406,10.05564697265625
1651171056.8240466,0.006391586616190171,0.009321063815277333,-0.04154531300523612,0.36930560607910157,-0.037708676147460936,9.755773214721678
1651171056.8340414,0.0029294771990871615,0.009187905760773371,-0.04061320662370838,0.19572598571777342,-0.4004302276611328,10.06223102722168
1651171056.8440464,0.009187905760773371,-0.0003994741635118857,-0.0391484680241648,0.3938461730957031,-0.08259995727539061,9.636661682128906
1651171056.8540418,0.0066579027251980945,-0.001331580545039619,-0.03874899386065292,0.48243163452148435,-0.12629413757324218,10.044873065185547
1651171056.864046,0.00692421883420602,0.0003994741635118857,-0.038615835806148954,0.7092822418212891,-0.20171148986816406,9.700706576538085
1651171056.874042,0.010519486305812991,0.010120012142301104,-0.039414784133172724,0.49679684448242184,0.08140285644531249,10.128670123291014
1651171056.8840458,0.005858954398174323,0.013049489341388266,-0.03994741635118857,0.32441432495117184,-0.18076222534179687,9.738415252685547
1651171056.8940423,0.010519486305812991,0.009321063815277333,-0.04034689051470046,0.1771709228515625,-0.07481880187988281,9.95389340209961
1651171056.9040456,0.006791060779702058,0.001331580545039619,-0.041012680787220264,0.3507505432128906,-0.42796354675292964,9.87608184814453
1651171056.9140425,0.015446334322459582,0.0,-0.040213732460196494,0.5686228942871093,0.21068974609375,9.926958633422851
1651171056.9240453,0.005193164125654515,0.006791060779702058,-0.03981425829668461,0.5961562133789062,-0.507570751953125,9.867702142333984
1651171056.9340427,0.01691107292200316,0.01344896350490015,-0.03888215191515688,0.42317514343261714,0.16220716247558592,9.95329485168457
1651171056.944045,0.009853696033293181,0.014913702104443732,-0.039414784133172724,0.16280571289062498,-0.1771709228515625,9.964068759155273
1651171056.954043,0.013715279613908078,0.007190534943213943,-0.04181162911424404,0.19572598571777342,-0.06703764648437499,9.85632968444824
1651171056.9640448,0.012117382959860534,0.001731054708551505,-0.04261057744126781,0.39803602600097654,-0.12509703674316405,9.93354268798828
1651171056.9740434,0.013981595722916,0.001331580545039619,-0.04327636771378762,0.6171054779052734,-0.16280571289062498,9.94072529296875
1651171056.9840446,0.01344896350490015,0.010519486305812991,-0.04234426133225989,0.5961562133789062,-0.0987608184814453,9.926360083007811
1651171056.9940436,0.01251685712337242,0.017177389031011087,-0.04234426133225989,0.24121581726074218,-0.2932897033691406,9.883264453125
1651171057.0040443,0.017576863194522972,0.014247911831923924,-0.04167847105974008,0.04967968444824218,0.1867477294921875,9.906009368896484
1651171057.0140438,0.009321063815277333,0.0035952674716069714,-0.04034689051470046,0.14125789794921875,-0.3752911102294922,9.913790524291992
1651171057.024044,0.0167779148674992,-0.0021305288720633903,-0.042743735495771776,0.44412440795898434,0.1657984649658203,9.928754284667969
1651171057.034044,0.009587379924285258,0.0010652644360316951,-0.0430100516047797,0.5823895538330078,-0.18375497741699218,9.943119494628906
1651171057.0440438,0.013582121559404116,0.009321063815277333,-0.0447411063133312,0.536899722290039,0.06284779357910156,9.92755718383789
1651171057.0540442,0.008122641324741676,0.015313176267955617,-0.04314320965928366,0.16819266662597654,-0.3716998077392578,10.046668716430663
1651171057.0640435,0.015313176267955617,0.008788431597261486,-0.04460794825882724,0.06045359191894531,0.21906945190429686,9.782707983398437
1651171057.0740445,0.00905474770626941,0.0001331580545039619,-0.043675841877299504,0.1753752716064453,-0.20949264526367187,9.977236868286132
1651171057.0840433,0.013981595722916,-0.0066579027251980945,-0.0447411063133312,0.48123453369140623,-0.07362170104980469,9.922768780517577
1651171057.0940447,0.013715279613908078,-0.0021305288720633903,-0.0447411063133312,0.6458358978271485,0.08798691101074219,10.02392380065918
1651171057.104043,0.011451592687340723,0.00692421883420602,-0.04687163518539458,0.44592005920410155,-0.0652419952392578,9.903016616821288
1651171057.114045,0.012383699068868458,0.00972053797878922,-0.049002164057457984,0.1657984649658203,0.06584054565429687,9.935936889648437
1651171057.1240427,0.010519486305812991,0.004527373853134705,-0.04953479627547383,-0.0047884033203125,-0.2747346405029297,9.849745629882811
1651171057.1340454,0.01611212459497939,-0.005992112452678286,-0.04993427043898572,0.25258827514648435,0.28490999755859375,9.929951385498047
1651171057.1440427,0.005992112452678286,-0.008255799379245638,-0.049801112384481754,0.47644613037109373,-0.3956418243408203,9.974244116210937
1651171057.1540456,0.015446334322459582,-0.0029294771990871615,-0.049002164057457984,0.49739539489746093,0.16280571289062498,10.01674119567871
1651171057.1640425,0.00905474770626941,0.0038615835806148956,-0.04953479627547383,0.33578678283691404,-0.14185644836425781,9.920374578857421
1651171057.1740458,0.010785802414820914,0.0027963191445832,-0.05006742849348968,0.13826514587402344,0.14604630126953125,9.858125335693359
1651171057.184042,0.0073236929977179045,-0.00346210941710301,-0.05139900903852929,0.09935936889648436,-0.14903905334472656,9.930549935913085
1651171057.194046,0.008655273542757524,-0.011984224905356573,-0.05259743152906495,0.3651157531738281,0.06584054565429687,9.986215124511718
1651171057.2040417,0.0066579027251980945,-0.011052118523828838,-0.05193164125654514,0.5333084197998047,-0.0526724365234375,9.984419473266602
1651171057.2140462,0.006391586616190171,-0.00346210941710301,-0.05352953791059268,0.4483142608642578,-0.16519991455078123,9.899425314331054
1651171057.2240417,0.0083889574337496,0.001731054708551505,-0.05299690569257683,0.21128829650878905,0.14784195251464843,9.913191973876952
1651171057.2340465,0.004660531907638666,-0.0014647385995435807,-0.05259743152906495,0.029927520751953124,-0.22385785522460935,9.94012674255371
1651171057.2440414,0.01038632825130903,-0.01251685712337242,-0.05459480234662439,0.2214636535644531,0.19153613281249998,9.911396322631836
1651171057.2540467,0.0033289513625990473,-0.01597896654047543,-0.05539375067364816,0.42975919799804685,-0.1975216369628906,9.964068759155273
1651171057.2640412,0.008522115488253561,-0.012783173232380343,-0.05725796343670362,0.6530185028076172,0.2759317413330078,9.93414123840332
1651171057.274047,0.0006657902725198095,-0.002663161090079238,-0.056991647327695696,0.4435258575439453,-0.34835634155273437,10.017938296508788
1651171057.2840407,0.007989483270237714,0.0011984224905356572,-0.058190069818231355,0.1879448303222656,0.24361001892089842,9.913790524291992
1651171057.294047,0.0010652644360316951,-0.004793689962142629,-0.05725796343670362,0.015562310791015624,-0.19153613281249998,9.91438907470703
1651171057.3040404,0.0035952674716069714,-0.015845808485971467,-0.0587227020362472,0.24301146850585936,-0.008978256225585938,9.905410818481444
1651171057.3140476,0.0018642127630554665,-0.021172130666129944,-0.057790595654719466,0.5446808776855468,0.03172317199707031,9.961076007080077
1651171057.3240404,0.0006657902725198095,-0.013582121559404116,-0.06005428258128682,0.6410474945068358,-0.029927520751953124,9.968258612060547
1651171057.3340478,0.0019973708175594286,-0.0033289513625990473,-0.06085323090831059,0.47764323120117186,0.1370680450439453,9.87009634399414
1651171057.34404,-0.0038615835806148956,0.0006657902725198095,-0.06072007285380662,0.10474632263183593,-0.24001871643066405,10.019135397338866
1651171057.354048,0.0014647385995435807,-0.007856325215733753,-0.06125270507182247,0.09157821350097656,0.29568390502929687,9.828197814941406
1651171057.36404,-0.006125270507182248,-0.015712650431467506,-0.06111954701731851,0.22744915771484372,-0.3591302490234375,9.959280355834961
1651171057.3740482,0.002530003035575276,-0.019307917903074477,-0.06245112756235814,0.623090982055664,0.24301146850585936,9.829993466186522
1651171057.3840394,-0.006391586616190171,-0.012117382959860534,-0.061652179235334365,0.5770026000976562,-0.2214636535644531,10.06881508178711
1651171057.3940485,0.0007989483270237714,-0.0049268480166465905,-0.06311691783487795,0.4387374542236328,0.18435352783203124,9.849147079467773
1651171057.4040391,-0.005725796343670361,-0.0018642127630554665,-0.06404902421640568,0.09696516723632811,-0.19153613281249998,10.047267266845703
1651171057.4140487,-0.0007989483270237714,-0.010519486305812991,-0.0660463950339651,0.1580173095703125,0.14245499877929688,9.813832604980469
1651171057.4240391,-0.006391586616190171,-0.01691107292200316,-0.06484797254342944,0.3950432739257812,-0.12210428466796874,9.979631069946288
1651171057.434049,-0.004660531907638666,-0.01731054708551505,-0.06564692087045322,0.63206923828125,-0.001197100830078125,9.822212310791015
1651171057.444039,-0.004793689962142629,-0.008255799379245638,-0.06631271114297303,0.5207388610839844,0.12449848632812499,9.923965881347655
1651171057.4540486,-0.008522115488253561,-0.004394215798630743,-0.06617955308846907,0.23044190979003906,-0.1897404815673828,9.89583401184082
1651171057.4640393,-0.005060006071150552,-0.008255799379245638,-0.06817692390602849,0.15263035583496093,0.23642741394042968,9.949104998779296
1651171057.4740484,-0.011318434632836761,-0.016245282649483352,-0.06817692390602849,0.24301146850585936,-0.1149216796875,9.8449572265625
1651171057.4840395,-0.00692421883420602,-0.02077265650261806,-0.06977482056007604,0.575206948852539,0.20171148986816406,9.85094273071289
1651171057.494048,-0.015180018213451656,-0.014247911831923924,-0.06964166250557208,0.5770026000976562,-0.3573345977783203,10.001178884887695
1651171057.5040398,-0.006125270507182248,-0.008788431597261486,-0.07017429472358792,0.45549686584472654,0.4016273284912109,9.809044201660155
1651171057.5140479,-0.017976337358034857,-0.00625842856168621,-0.06884271417854831,0.0909796630859375,-0.2885013000488281,9.952696301269532
1651171057.52404,-0.008788431597261486,-0.015845808485971467,-0.07123955915961962,0.1849520782470703,0.17058686828613281,9.813234054565429
1651171057.5340476,-0.015845808485971467,-0.021837920938649752,-0.07070692694160377,0.3573345977783203,-0.11552023010253906,10.022726699829102
1651171057.5440402,-0.010652644360316953,-0.024900556192240877,-0.0727042977591632,0.6751648681640625,0.20231004028320312,9.841964474487304
1651171057.5540473,-0.016245282649483352,-0.014381069886427886,-0.07350324608618697,0.5716156463623047,-0.201112939453125,9.97903251953125
1651171057.5640407,-0.01265001517787638,-0.007989483270237714,-0.07323692997717905,0.31543606872558594,-0.005985504150390624,9.810241302490233
1651171057.574047,-0.013582121559404116,-0.008788431597261486,-0.07297061386817112,0.03651157531738281,0.14484920043945312,9.9215716796875
1651171057.5840409,-0.018775285685058627,-0.020639498448114094,-0.07243798165015528,0.17357962036132812,-0.17956512451171874,9.74799205932617
1651171057.5940468,-0.01824265346704278,-0.02769687533682408,-0.07217166554114736,0.469263525390625,-0.2932897033691406,10.132859976196288
1651171057.604041,-0.011451592687340723,-0.023968449810713145,-0.07390272024969885,0.699705435180664,0.5392939239501953,10.043077413940429
1651171057.6140466,-0.02157160482964183,-0.011984224905356573,-0.07483482663122659,0.5799953521728515,0.00239420166015625,9.95987890625
1651171057.6240413,-0.024900556192240877,-0.0055926382891664,-0.07416903635870678,0.23642741394042968,-0.6302735870361328,9.588179098510741
1651171057.6340463,-0.011451592687340723,-0.010519486305812991,-0.07536745884924244,0.016160861206054686,0.6458358978271485,10.043675964355469
1651171057.6440415,-0.02676476895529634,-0.02090581455712202,-0.07390272024969885,0.16819266662597654,-0.24480711975097655,9.731831198120117
1651171057.654046,-0.023702133701705222,-0.02783003339132804,-0.07430219441321075,0.6105214233398437,-0.44053310546874996,9.79348189086914
1651171057.664042,-0.01731054708551505,-0.018375811521546742,-0.0727042977591632,0.6200982299804687,0.10354922180175781,10.251971508789062
1651171057.674046,-0.016511598758491276,-0.00905474770626941,-0.07363640414069093,0.6009446166992187,0.5776011505126952,9.631873278808593
1651171057.684042,-0.030759510590415203,-0.003062635253591124,-0.07363640414069093,0.10115502014160156,-0.8577227447509765,10.065822329711914
1651171057.6940458,-0.011984224905356573,-0.010785802414820914,-0.07363640414069093,0.05566518859863281,0.4052186309814453,9.730035546875
1651171057.7040424,-0.021837920938649752,-0.021305288720633905,-0.07416903635870678,0.18315642700195311,0.07541735229492187,10.039486111450195
1651171057.7140455,-0.02596582062827257,-0.026365294791784455,-0.07470166857672263,0.6607996582031249,-0.41419688720703124,9.656413845825195
1651171057.7240427,-0.02090581455712202,-0.015313176267955617,-0.0727042977591632,0.6452373474121094,-0.2914940521240234,10.127473022460936
1651171057.7340453,-0.01597896654047543,-0.006391586616190171,-0.07283745581366716,0.507570751953125,0.3908534210205078,9.688137017822266
1651171057.7440429,-0.02876213977285577,-0.0019973708175594286,-0.07084008499610774,0.059256491088867186,-0.44113165588378905,10.136451278686522
1651171057.754045,-0.021305288720633905,-0.011318434632836761,-0.07057376888709982,0.10295067138671875,-0.2998737579345703,9.679757312011718
1651171057.764043,-0.018508969576050704,-0.019307917903074477,-0.07030745277809189,0.239420166015625,0.39923312683105466,10.043077413940429
1651171057.7740448,-0.02783003339132804,-0.022636869265673522,-0.07044061083259585,0.6721721160888672,-0.32561142578124996,9.718663088989258
1651171057.7840433,-0.023036343429185407,-0.011318434632836761,-0.07057376888709982,0.5345055206298828,-0.2861070983886719,10.175955606079102
1651171057.7940445,-0.01824265346704278,-0.004127899689622819,-0.07084008499610774,0.43454760131835934,0.08978256225585937,9.660603698730467
1651171057.8040435,-0.02343581759269729,-0.0031957933080950856,-0.06937534639656416,0.025737667846679687,-0.1592144104003906,10.147225186157225
1651171057.8140442,-0.022770027320177483,-0.01251685712337242,-0.07030745277809189,0.18614917907714842,-0.4465186096191406,9.630676177978515
1651171057.8240438,-0.018642127630554665,-0.01744370514001901,-0.06857639806954038,0.3555389465332031,-0.10474632263183593,10.171167202758788
1651171057.834044,-0.019174759848570515,-0.016378440703987314,-0.06764429168801264,0.6829460235595702,0.12509703674316405,9.685742816162108
1651171057.8440442,-0.0251668723012488,-0.004793689962142629,-0.0671116594699968,0.4369418029785156,-0.4704606262207031,10.040683212280273
1651171057.8540437,-0.01691107292200316,-0.0033289513625990473,-0.06697850141549283,0.20829554443359374,-0.08559270935058594,9.686341366577148
1651171057.8640444,-0.01944107595757844,-0.005858954398174323,-0.06657902725198095,0.02633621826171875,-0.011971008300781249,10.058639724731444
1651171057.8740435,-0.02157160482964183,-0.016644756812995237,-0.06777744974251661,0.2136824981689453,-0.2885013000488281,9.727042794799804
1651171057.8840446,-0.01944107595757844,-0.020639498448114094,-0.0671116594699968,0.48662148742675776,-0.27832594299316404,9.999981784057617
1651171057.8940432,-0.01744370514001901,-0.013715279613908078,-0.06591323697946114,0.6482300994873047,-0.23882161560058593,9.90122096557617
1651171057.9040449,-0.017710021249026934,-0.0033289513625990473,-0.06551376281594926,0.4746504791259765,-0.1322796417236328,9.911396322631836
1651171057.914043,-0.02024002428460221,0.0001331580545039619,-0.06564692087045322,0.09756371765136718,-0.5123591552734374,9.864709390258788
1651171057.924045,-0.011851066850852611,-0.007723167161229791,-0.06538060476144529,0.016759411621093748,0.13168109130859373,9.874884747314452
1651171057.9340427,-0.019174759848570515,-0.01744370514001901,-0.06551376281594926,0.20350714111328125,-0.3220201232910156,9.93952819213867
1651171057.9440453,-0.011584750741844684,-0.022104237047657675,-0.06764429168801264,0.6123170745849609,-0.12868833923339842,9.873089096069336
1651171057.9540424,-0.015313176267955617,-0.013715279613908078,-0.06791060779702057,0.5895721588134766,-0.4273649963378906,10.041281762695311
1651171057.9640455,-0.007989483270237714,-0.004660531907638666,-0.06844324001503642,0.4722562774658203,-0.08200140686035155,9.931148486328125
1651171057.9740422,-0.013182647395892227,0.0,-0.06671218530648491,0.1304839904785156,-0.5776011505126952,9.951499200439452
1651171057.9840457,-0.005060006071150552,-0.005326322180158476,-0.06458165643442153,0.044292730712890624,-0.18914193115234373,9.727641345214844
1651171057.994042,-0.006524744670694133,-0.015579492376963544,-0.06498113059793341,0.24001871643066405,-0.1562216583251953,9.986215124511718
1651171058.004046,-0.006791060779702058,-0.018508969576050704,-0.06484797254342944,0.5542576843261718,-0.3968389251708984,9.91498762512207
1651171058.0140417,-0.0018642127630554665,-0.014247911831923924,-0.06644586919747698,0.632667788696289,-0.1005564697265625,10.01075569152832
1651171058.0240462,-0.0049268480166465905,-0.0027963191445832,-0.06737797557900473,0.3585316986083984,-0.354940396118164,9.932345587158203
1651171058.0340414,-0.0003994741635118857,-0.003728425526110933,-0.06857639806954038,0.15682020874023436,-0.12509703674316405,9.891644158935547
1651171058.0440464,-0.005858954398174323,-0.008522115488253561,-0.06657902725198095,0.05985504150390625,-0.7272387542724609,9.989806427001952
1651171058.0540411,0.00692421883420602,-0.019174759848570515,-0.06737797557900473,0.37768531188964843,0.05746083984375,9.855132583618163
1651171058.0640469,-0.0021305288720633903,-0.015046860158947694,-0.0671116594699968,0.5524620330810547,-0.5500678314208984,9.97783541870117
1651171058.074041,0.008921589651765448,-0.009454221869781294,-0.06844324001503642,0.5416881256103515,-0.10953472595214843,9.86291373901367
1651171058.084047,0.004793689962142629,-0.00346210941710301,-0.06764429168801264,0.26396073303222656,-0.40402153015136716,10.075997686767577
1651171058.0940406,0.013049489341388266,-0.005459480234662438,-0.07070692694160377,0.18076222534179687,-0.06045359191894531,9.813832604980469
1651171058.1040473,0.009853696033293181,-0.011717908796348646,-0.07110640110511567,0.22744915771484372,-0.37828386230468747,9.988010775756836
1651171058.1140404,0.011851066850852611,-0.016511598758491276,-0.0727042977591632,0.47285482788085936,-0.4860229370117187,9.868899243164062
1651171058.1240475,0.019174759848570515,-0.012250541014364496,-0.07217166554114736,0.6177040283203125,-0.0718260498046875,9.943718045043944
1651171058.13404,0.013582121559404116,-0.0029294771990871615,-0.07163903332313151,0.49679684448242184,-0.6392518432617187,9.816226806640625
1651171058.1440477,0.022237395102161637,0.0015978966540475428,-0.07217166554114736,0.15502455749511718,-0.08499415893554688,10.001777435302733
1651171058.1540399,0.01691107292200316,-0.004127899689622819,-0.07057376888709982,0.044891281127929686,-0.4686649749755859,9.941323843383788
1651171058.1640482,0.02356897564720126,-0.015180018213451656,-0.0727042977591632,0.29568390502929687,0.07481880187988281,9.912593423461914
1651171058.1740396,0.016378440703987314,-0.016511598758491276,-0.07416903635870678,0.5596446380615234,-0.6177040283203125,9.903016616821288
1651171058.1840484,0.02769687533682408,-0.011451592687340723,-0.07470166857672263,0.7116764434814453,0.04848258361816406,9.950900650024414
1651171058.1940393,0.018642127630554665,0.0003994741635118857,-0.07403587830420282,0.4746504791259765,-0.6105214233398437,9.982623822021484
1651171058.2040486,0.028362665609343887,0.0038615835806148956,-0.07496798468573054,0.17657237243652343,-0.19632453613281248,9.756970315551758
1651171058.214039,0.02583266257376861,-0.0022636869265673524,-0.07416903635870678,0.00239420166015625,-0.3573345977783203,9.890447058105469
1651171058.2240489,0.028495823663847848,-0.015180018213451656,-0.07310377192267509,0.3363853332519531,-0.25258827514648435,9.873089096069336
1651171058.2340388,0.030892668644919165,-0.01611212459497939,-0.07430219441321075,0.623090982055664,-0.1227028350830078,9.996390481567381
1651171058.2440486,0.03036003642690331,-0.008122641324741676,-0.07483482663122659,0.6458358978271485,-0.3327940307617187,9.886855755615233
1651171058.254039,0.0346210941710301,0.0011984224905356572,-0.07736482966680187,0.41060558471679687,0.05386953735351562,9.979631069946288
1651171058.2640483,0.029161613936367656,0.0035952674716069714,-0.07776430383031376,0.0909796630859375,-0.6183025787353515,9.862315188598632
1651171058.2740393,0.04061320662370838,-0.004793689962142629,-0.07816377799382564,0.13766659545898435,0.13467384338378904,9.87069489440918
1651171058.284048,0.030093720317895388,-0.013315805450396189,-0.07603324912176225,0.3591302490234375,-0.5590460876464843,9.93952819213867
1651171058.2940395,0.038482677751644996,-0.013182647395892227,-0.07629956523077018,0.6021417175292968,0.04967968444824218,9.935936889648437
1651171058.304048,0.03209109113545482,-0.00346210941710301,-0.07563377495825035,0.6177040283203125,-0.37768531188964843,9.903016616821288
1651171058.31404,0.03874899386065292,0.0042610577441267805,-0.07603324912176225,0.3058592620849609,-0.05805939025878906,9.892841259765625
1651171058.3240478,0.03448793611652613,0.003062635253591124,-0.07789746188481772,0.08678981018066406,-0.1083376251220703,9.888651406860351
1651171058.3340402,0.03621899082507764,-0.004527373853134705,-0.07843009410283357,0.21248539733886718,-0.20290859069824219,9.95389340209961
1651171058.3440475,0.03728425526110933,-0.010918960469324876,-0.07669903939428206,0.48542438659667964,-0.11073182678222655,9.920374578857421
1651171058.3540404,0.03488741028003802,-0.005858954398174323,-0.07629956523077018,0.5632359405517577,-0.3387795349121094,9.913191973876952
1651171058.3640473,0.04074636467821234,0.003062635253591124,-0.07470166857672263,0.5093664031982421,0.1562216583251953,9.924564431762695
1651171058.3740406,0.03368898778950236,0.007590009106725828,-0.0737695621951949,0.18914193115234373,-0.4213794921875,9.958681805419921
1651171058.384047,0.042876893550275734,0.00346210941710301,-0.07390272024969885,0.11073182678222655,0.2507926239013672,9.86351228942871
1651171058.394041,0.03448793611652613,-0.002663161090079238,-0.0744353524677147,0.2346317626953125,-0.19333178405761717,9.930549935913085
1651171058.4040468,0.039414784133172724,-0.004394215798630743,-0.07470166857672263,0.5129577056884765,0.027533319091796873,9.91558617553711
1651171058.4140413,0.0363521488795816,0.0021305288720633903,-0.07390272024969885,0.6081272216796875,-0.11133037719726561,9.97184991455078
1651171058.4240465,0.03808320358813311,0.010652644360316953,-0.07350324608618697,0.44592005920410155,-0.01975216369628906,9.910797772216796
1651171058.4340415,0.03475425222553406,0.01597896654047543,-0.07123955915961962,0.12090718383789062,-0.06105214233398437,9.931747036743163
1651171058.4440463,0.03382214584400632,0.008788431597261486,-0.06857639806954038,0.07003039855957031,-0.12389993591308593,9.882067352294921
1651171058.4540417,0.03382214584400632,0.0010652644360316951,-0.06644586919747698,0.25438392639160157,0.11073182678222655,9.973645565795898
1651171058.4640462,0.02956108809987954,0.0,-0.06751113363350868,0.5105635040283203,-0.030526071166992186,9.873089096069336
1651171058.474042,0.030759510590415203,0.007456851052221866,-0.06777744974251661,0.5416881256103515,0.20470424194335937,9.924564431762695
1651171058.4840457,0.024634240083232953,0.016511598758491276,-0.06777744974251661,0.33039982910156246,-0.09457096557617187,9.867103591918944
1651171058.4940422,0.02716424311880823,0.017976337358034857,-0.06697850141549283,0.07900865478515624,0.21966800231933592,9.913191973876952
1651171058.5040457,0.021438446775137867,0.0111852765783328,-0.06564692087045322,0.09457096557617187,-0.1304839904785156,9.835380419921874
1651171058.5140426,0.0251668723012488,0.0055926382891664,-0.06564692087045322,0.28012159423828126,0.08259995727539061,10.020332498168944
1651171058.5240455,0.022770027320177483,0.006125270507182248,-0.06404902421640568,0.5243301635742187,0.08319850769042968,9.920973129272461
1651171058.5340428,0.022104237047657675,0.015446334322459582,-0.06418218227090965,0.5009866973876953,0.17776947326660156,9.937133990478515
1651171058.5440452,0.021038972611625982,0.022903185374681445,-0.06285060172587002,0.277727392578125,0.08918401184082031,9.782109432983399
1651171058.554043,0.01944107595757844,0.021038972611625982,-0.06458165643442153,-0.023942016601562498,0.2442085693359375,9.929951385498047
1651171058.564045,0.01691107292200316,0.012250541014364496,-0.06471481448892549,0.047285482788085934,0.16460136413574217,9.874884747314452
1651171058.5740433,0.014514227940931847,0.006791060779702058,-0.06498113059793341,0.3178302703857422,-0.011372457885742187,9.916184725952148
1651171058.5840447,0.014381069886427886,0.00905474770626941,-0.06391586616190172,0.49320554199218747,0.3124433166503906,9.890447058105469
1651171058.5940435,0.007190534943213943,0.017976337358034857,-0.06245112756235814,0.38187516479492184,0.020949264526367185,9.932345587158203
1651171058.6040444,0.007590009106725828,0.02090581455712202,-0.060986388962814546,0.1849520782470703,0.1580173095703125,9.896432562255859
1651171058.6140437,0.004394215798630743,0.01890844373956259,-0.060187440635790776,-0.004189852905273437,0.17118541870117188,9.896432562255859
1651171058.624044,0.0019973708175594286,0.00972053797878922,-0.06032059869029474,0.10893617553710937,0.2855085479736328,9.840767373657226
1651171058.634044,-0.0022636869265673524,0.004394215798630743,-0.06005428258128682,0.36152445068359373,0.14544775085449219,9.918578927612304
1651171058.6440437,-0.003728425526110933,0.008655273542757524,-0.06072007285380662,0.42437224426269526,0.21787235107421873,9.932345587158203
1651171058.6540442,-0.0049268480166465905,0.016245282649483352,-0.06178533728983833,0.2932897033691406,0.2597708801269531,9.827599264526366
1651171058.6640437,-0.010519486305812991,0.01597896654047543,-0.06205165339884625,0.06464344482421874,0.02693476867675781,9.892242709350585
1651171058.6740444,-0.008788431597261486,0.010918960469324876,-0.06111954701731851,-0.0017956512451171875,0.21487959899902342,9.852738381958007
1651171058.6840434,-0.011717908796348646,0.0031957933080950856,-0.06072007285380662,0.1274912384033203,0.16160861206054686,9.834183319091796
1651171058.6940446,-0.012250541014364496,0.0018642127630554665,-0.06125270507182247,0.4207809417724609,0.2501940734863281,9.861716638183593
1651171058.7040431,-0.0167779148674992,0.00625842856168621,-0.061652179235334365,0.43933600463867184,0.09457096557617187,9.935338339233398
1651171058.714045,-0.016511598758491276,0.00972053797878922,-0.06338323394388587,0.2328361114501953,0.36391865234375,9.83897172241211
1651171058.724043,-0.021837920938649752,0.008522115488253561,-0.06391586616190172,0.0053869537353515625,0.10354922180175781,9.858125335693359
1651171058.7340453,-0.02250371121116956,-0.0005326322180158476,-0.06471481448892549,0.0053869537353515625,0.18315642700195311,9.903615167236328
1651171058.7440426,-0.024767398137736915,-0.007590009106725828,-0.06378270810739775,0.28431144714355466,0.08738836059570312,9.896432562255859
1651171058.7540455,-0.02783003339132804,-0.006391586616190171,-0.06191849534434229,0.43574470214843747,0.08200140686035155,9.93354268798828
1651171058.7640424,-0.027963191445832,-0.0010652644360316951,-0.06178533728983833,0.4129997863769531,0.2663549346923828,9.785102185058593
1651171058.7740457,-0.03302319751698255,0.005193164125654515,-0.06191849534434229,0.12689268798828124,-0.04908113403320312,9.928155734252929
1651171058.7840421,-0.030626352535911235,0.0007989483270237714,-0.06311691783487795,-0.05386953735351562,0.2501940734863281,9.867702142333984
1651171058.7940462,-0.035952674716069714,-0.009454221869781294,-0.06311691783487795,0.09337386474609374,0.10893617553710937,9.85692823486328
1651171058.8040419,-0.035819516661565756,-0.015446334322459582,-0.06418218227090965,0.3591302490234375,0.03591302490234375,9.879673150634765
1651171058.8140464,-0.035952674716069714,-0.012117382959860534,-0.06511428865243737,0.4908113403320312,0.07362170104980469,9.888052856445311
1651171058.8240416,-0.03834951969714103,-0.005725796343670361,-0.06551376281594926,0.3968389251708984,0.04908113403320312,9.93952819213867
1651171058.8340466,-0.03981425829668461,-0.001731054708551505,-0.06511428865243737,0.13467384338378904,-0.10354922180175781,9.900023864746093
1651171058.8440413,-0.036751623043093484,-0.0055926382891664,-0.0636495500528938,0.011372457885742187,0.07062894897460938,9.813234054565429
1651171058.8540468,-0.0391484680241648,-0.014647385995435809,-0.06418218227090965,0.12808978881835936,0.06045359191894531,9.884461553955077
1651171058.864041,-0.04061320662370838,-0.019840550121090324,-0.06498113059793341,0.364517202758789,-0.07062894897460938,9.885060104370117
1651171058.874047,-0.038482677751644996,-0.014913702104443732,-0.06511428865243737,0.45669396667480466,0.018555062866210937,9.948506448364258
1651171058.8840408,-0.04181162911424404,-0.0083889574337496,-0.06511428865243737,0.3082534637451172,-0.037708676147460936,9.91558617553711
1651171058.8940473,-0.04221110327775593,-0.008655273542757524,-0.06591323697946114,0.12150573425292968,-0.08918401184082031,9.827000714111328
1651171058.9040406,-0.042077945223251964,-0.013715279613908078,-0.06458165643442153,0.0796072052001953,-0.1849520782470703,9.880271701049804
1651171058.9140475,-0.04127899689622819,-0.020639498448114094,-0.06524744670694134,0.2962824554443359,0.0017956512451171875,9.854534033203125
1651171058.9240403,-0.04247741938676385,-0.021172130666129944,-0.06444849837991756,0.4129997863769531,-0.22206220397949217,9.950900650024414
1651171058.9340477,-0.03901530996966084,-0.014647385995435809,-0.06418218227090965,0.37409400939941406,-0.09816226806640624,9.923367330932617
1651171058.94404,-0.03781688747912518,-0.012117382959860534,-0.0643153403254136,0.2645592834472656,-0.015562310791015624,9.840767373657226
1651171058.954048,-0.04048004856920442,-0.014114753777419962,-0.06378270810739775,0.017357962036132813,-0.22565350646972654,9.916184725952148
1651171058.96404,-0.03542004249805387,-0.02157160482964183,-0.06631271114297303,0.15562310791015624,-0.002992752075195312,9.804255798339844
1651171058.9740484,-0.03795004553362914,-0.027297401173312193,-0.06511428865243737,0.29867665710449215,-0.3399766357421875,10.001777435302733
1651171058.9840398,-0.033955303898510286,-0.02596582062827257,-0.0660463950339651,0.508169302368164,-0.258573779296875,9.903615167236328
1651171058.9940486,-0.03382214584400632,-0.01810949541253882,-0.06511428865243737,0.44412440795898434,-0.32441432495117184,9.931747036743163
1651171059.0040393,-0.02956108809987954,-0.012783173232380343,-0.06444849837991756,0.20829554443359374,-0.17836802368164062,9.87608184814453
1651171059.0140488,-0.031158984753927088,-0.017177389031011087,-0.06351639199838983,0.07242460021972656,-0.3094505645751953,9.817423907470703
1651171059.0240393,-0.028096349500335963,-0.02423476591972107,-0.06351639199838983,0.15682020874023436,-0.22385785522460935,9.980828170776366
1651171059.034049,-0.02609897868277653,-0.028895297827359733,-0.06391586616190172,0.3716998077392578,-0.20709844360351562,9.882067352294921
1651171059.0440392,-0.027430559227816155,-0.02596582062827257,-0.06511428865243737,0.48123453369140623,-0.2603694305419922,9.935338339233398
1651171059.0540488,-0.026498452846288417,-0.01944107595757844,-0.06378270810739775,0.39803602600097654,-0.3938461730957031,9.92217023010254
1651171059.0640395,-0.0223705531566656,-0.017976337358034857,-0.06311691783487795,0.201112939453125,-0.34117373657226563,9.974244116210937
1651171059.0740485,-0.02090581455712202,-0.021837920938649752,-0.06245112756235814,0.16639701538085935,-0.3094505645751953,9.865307940673828
1651171059.0840397,-0.019041601794066554,-0.02609897868277653,-0.06178533728983833,0.2501940734863281,-0.33758243408203126,9.979631069946288
1651171059.0940483,-0.01691107292200316,-0.029161613936367656,-0.06271744367136606,0.4704606262207031,-0.4052186309814453,9.868300692749022
1651171059.10404,-0.012783173232380343,-0.024634240083232953,-0.061385863126326434,0.4417302062988281,-0.1945288848876953,10.019135397338866
1651171059.114048,-0.013315805450396189,-0.02157160482964183,-0.0625842856168621,0.32920272827148434,-0.25917232971191406,9.821613760375977
1651171059.1240401,-0.011584750741844684,-0.020106866230098247,-0.06404902421640568,0.11611878051757812,-0.4752490295410156,9.999981784057617
1651171059.1340477,-0.005326322180158476,-0.02769687533682408,-0.06391586616190172,0.2346317626953125,-0.1466448516845703,9.85632968444824
1651171059.1440403,-0.007456851052221866,-0.03036003642690331,-0.06338323394388587,0.28790274963378903,-0.40462008056640625,10.101735354614258
1651171059.1540475,-0.0033289513625990473,-0.029161613936367656,-0.06298375978037399,0.4997895965576172,-0.4955997436523437,9.8449572265625
1651171059.1640406,-0.001331580545039619,-0.023702133701705222,-0.061385863126326434,0.4800374328613281,-0.3010708587646484,10.021529598999022
1651171059.1740472,0.0010652644360316951,-0.01944107595757844,-0.06178533728983833,0.2950853546142578,-0.2609679809570312,9.929352835083007
1651171059.1840408,0.0014647385995435807,-0.02170476288414579,-0.061519021180830406,0.19512743530273435,-0.43514615173339843,9.881468801879882
1651171059.194047,0.005326322180158476,-0.025699504519264647,-0.06191849534434229,0.16819266662597654,-0.2376245147705078,9.93294413757324
1651171059.204041,0.0049268480166465905,-0.031691616971942935,-0.0632500758893819,0.297479556274414,-0.25258827514648435,9.980828170776366
1651171059.2140467,0.005858954398174323,-0.031158984753927088,-0.06311691783487795,0.517746109008789,-0.35673604736328124,9.935338339233398
1651171059.2240415,0.00905474770626941,-0.026365294791784455,-0.06378270810739775,0.4387374542236328,-0.34715924072265625,10.05564697265625
1651171059.2340465,0.011052118523828838,-0.023036343429185407,-0.0636495500528938,0.38786066894531246,-0.3435679382324219,9.81862100830078
1651171059.2440417,0.01384843766841204,-0.02090581455712202,-0.06285060172587002,0.2059013427734375,-0.3687070556640625,10.04906291809082
1651171059.2540462,0.013315805450396189,-0.02676476895529634,-0.06111954701731851,0.23702596435546874,-0.36391865234375,9.843760125732421
1651171059.264042,0.017576863194522972,-0.02676476895529634,-0.06111954701731851,0.36152445068359373,-0.2184709014892578,10.01674119567871
1651171059.274046,0.019041601794066554,-0.027563717282320117,-0.061652179235334365,0.40282442932128903,-0.2765302917480469,9.923965881347655
1651171059.2840421,0.02024002428460221,-0.025433188410256723,-0.06072007285380662,0.3806780639648437,-0.2454056701660156,9.936535440063476
1651171059.2940457,0.02090581455712202,-0.021172130666129944,-0.06271744367136606,0.297479556274414,-0.2567781280517578,9.87069489440918
1651171059.3040423,0.022636869265673522,-0.02436792397422503,-0.0625842856168621,0.23104046020507812,-0.13587094421386717,10.037091909790039
1651171059.3140454,0.021837920938649752,-0.026631610900792378,-0.062317969507854176,0.33758243408203126,-0.4034229797363281,9.935338339233398
1651171059.3240426,0.02596582062827257,-0.02716424311880823,-0.06191849534434229,0.44592005920410155,-0.3477577911376953,10.081384640502929
1651171059.3340452,0.02503371424674484,-0.02503371424674484,-0.060586914799302664,0.5213374114990235,-0.17477672119140625,9.86411083984375
1651171059.3440428,0.02596582062827257,-0.020106866230098247,-0.05885586009075116,0.34656069030761716,-0.32441432495117184,10.007164389038085
1651171059.354045,0.02769687533682408,-0.019174759848570515,-0.05752427954571154,0.2454056701660156,-0.07541735229492187,9.858125335693359
1651171059.3640432,0.025433188410256723,-0.021438446775137867,-0.05845638592723928,0.2184709014892578,-0.2555810272216797,10.041880313110351
1651171059.3740447,0.02783003339132804,-0.024101607865217107,-0.0587227020362472,0.34715924072265625,-0.07122749938964844,9.93354268798828
1651171059.3840435,0.02583266257376861,-0.023702133701705222,-0.05912217619975908,0.4674678741455078,-0.25797522888183594,9.964068759155273
1651171059.3940444,0.02876213977285577,-0.020106866230098247,-0.05925533425426305,0.48722003784179685,-0.12210428466796874,9.952696301269532
1651171059.4040437,0.02862898171835181,-0.014247911831923924,-0.05712480538219966,0.38666356811523434,-0.28311434631347654,9.969455712890625
1651171059.4140441,0.03036003642690331,-0.013315805450396189,-0.056592173164183815,0.2855085479736328,-0.12389993591308593,9.964667309570311
1651171059.424044,0.02942793004537558,-0.014247911831923924,-0.055793224837160045,0.22086510314941404,-0.13766659545898435,9.998784683227539
1651171059.434044,0.03129214280843105,-0.01691107292200316,-0.05552690872815212,0.38307226562499996,-0.07541735229492187,9.964667309570311
1651171059.444044,0.029694246154383503,-0.014913702104443732,-0.05486111845563231,0.4584896179199218,-0.08200140686035155,10.027515103149414
1651171059.4540436,0.02942793004537558,-0.00972053797878922,-0.055793224837160045,0.44532150878906246,-0.03411737365722656,9.94730934753418
1651171059.464044,0.027963191445832,-0.005992112452678286,-0.05512743456464023,0.3441664886474609,-0.12689268798828124,9.93414123840332
1651171059.4740434,0.028362665609343887,-0.004660531907638666,-0.054727960401128345,0.24181436767578124,-0.10714052429199218,9.996989031982421
1651171059.4840446,0.028895297827359733,-0.0073236929977179045,-0.05352953791059268,0.297479556274414,-0.05027823486328125,9.980828170776366
1651171059.494043,0.02783003339132804,-0.008122641324741676,-0.052064799311049105,0.3956418243408203,-0.062249243164062495,9.944316595458984
1651171059.5040448,0.027031085064304263,-0.006125270507182248,-0.05166532514753722,0.4578910675048828,-0.1388636962890625,9.981426721191406
1651171059.514043,0.02783003339132804,-0.0011984224905356572,-0.05139900903852929,0.39743747558593745,0.032920272827148434,10.057442623901366
1651171059.5240452,0.0268979270098003,0.0018642127630554665,-0.05193164125654514,0.32082302246093747,0.06883329772949218,9.874884747314452
1651171059.5340426,0.024767398137736915,0.0019973708175594286,-0.05179848320204118,0.2561795776367187,-0.1322796417236328,9.941922393798828
1651171059.5440454,0.027430559227816155,-0.0001331580545039619,-0.051265850984025335,0.28790274963378903,0.06464344482421874,9.955090502929687
1651171059.5540423,0.0251668723012488,-0.0014647385995435807,-0.049667954329977795,0.4070142822265625,0.014963760375976562,9.97903251953125
1651171059.5640454,0.024101607865217107,0.001331580545039619,-0.04993427043898572,0.48662148742675776,-0.11013327636718749,9.931747036743163
1651171059.5740423,0.02676476895529634,0.00625842856168621,-0.04926848016646591,0.32620997619628905,0.037110125732421874,9.968857162475585
1651171059.584046,0.023702133701705222,0.00972053797878922,-0.047803741566922325,0.2747346405029297,0.020350714111328123,9.913790524291992
1651171059.594042,0.024634240083232953,0.00972053797878922,-0.04687163518539458,0.19033903198242186,0.05027823486328125,9.964667309570311
1651171059.604046,0.022237395102161637,0.006125270507182248,-0.04687163518539458,0.3058592620849609,-0.03890577697753906,9.926360083007811
1651171059.6140416,0.023968449810713145,0.00625842856168621,-0.04633900296737874,0.3806780639648437,0.20470424194335937,9.95389340209961
1651171059.6240463,0.01824265346704278,0.010519486305812991,-0.04660531907638666,0.4052186309814453,-0.08918401184082031,9.970652813720703
1651171059.6340413,0.021172130666129944,0.013981595722916,-0.04660531907638666,0.33039982910156246,0.08259995727539061,9.944316595458984
1651171059.6440465,0.019041601794066554,0.016644756812995237,-0.04420847409531535,0.22026655273437498,0.05746083984375,9.951499200439452
1651171059.6540413,0.017576863194522972,0.014514227940931847,-0.04380899993180347,0.17657237243652343,0.00718260498046875,9.964667309570311
1651171059.6640468,0.017177389031011087,0.010918960469324876,-0.04380899993180347,0.3345896820068359,0.010773907470703125,9.861716638183593
1651171059.6740408,0.017976337358034857,0.012783173232380343,-0.04261057744126781,0.3597287994384765,0.1771709228515625,10.000580334472655
1651171059.684047,0.014913702104443732,0.01597896654047543,-0.04247741938676385,0.37289690856933594,0.029927520751953124,9.87608184814453
1651171059.6940408,0.014381069886427886,0.0223705531566656,-0.04167847105974008,0.1227028350830078,-0.16879121704101563,10.058639724731444
1651171059.7040474,0.021438446775137867,0.016378440703987314,-0.043675841877299504,0.36631285400390623,0.6404489440917969,9.583989245605467
1651171059.71404,0.0035952674716069714,0.018508969576050704,-0.04114583884172423,0.09217676391601562,-0.63206923828125,10.225036740112303
1651171059.7240477,0.025566346464760685,0.013582121559404116,-0.04061320662370838,0.42018239135742186,0.5189432098388671,9.43614729309082
1651171059.7340403,0.008655273542757524,0.019307917903074477,-0.04048004856920442,0.2262520568847656,-0.001197100830078125,10.416572872924805
1651171059.7440479,0.012383699068868458,0.019973708175594285,-0.04154531300523612,0.32022447204589843,0.0143652099609375,9.570821136474608
1651171059.75404,0.013049489341388266,0.022636869265673522,-0.03954794218767669,0.07302315063476562,0.3028665100097656,10.107720858764647
1651171059.7640483,0.006524744670694133,0.017044230976507122,-0.03981425829668461,0.21188684692382811,-0.1849520782470703,9.421782083129882
1651171059.7740397,0.013182647395892227,0.016644756812995237,-0.03981425829668461,0.06643909606933593,0.6697779144287109,10.275913525390624
1651171059.7840483,-0.003994741635118857,0.010519486305812991,-0.037550571370117254,0.4010287780761719,-0.7535749725341796,9.557653027343749
1651171059.7940395,0.017843179303530896,0.017843179303530896,-0.03728425526110933,0.21009119567871093,0.7936778503417968,10.392630856323242
1651171059.8040485,-0.005459480234662438,0.017177389031011087,-0.03448793611652613,0.30346506042480464,-0.3333925811767578,9.299079248046874
1651171059.8140392,0.0073236929977179045,0.021038972611625982,-0.03795004553362914,-0.020949264526367185,0.2454056701660156,10.290877285766602
1651171059.824049,-0.0027963191445832,0.013582121559404116,-0.03608583277057368,0.17896657409667968,-0.2316390106201172,9.414599478149414
1651171059.834039,0.008921589651765448,0.013182647395892227,-0.03715109720660537,0.051475335693359374,0.6356605407714844,10.347739575195313
1651171059.8440487,-0.008522115488253561,0.008255799379245638,-0.035819516661565756,0.34237083740234375,-0.39863457641601563,9.481038574218749
1651171059.8540392,0.004127899689622819,0.011717908796348646,-0.03648530693408556,0.16819266662597654,0.10773907470703124,10.262146865844725
1651171059.8640482,0.001331580545039619,0.013049489341388266,-0.03568635860706179,0.23642741394042968,0.37828386230468747,9.433154541015625
1651171059.8740394,-0.0066579027251980945,0.013981595722916,-0.035153726389045944,-0.008978256225585938,-0.40940848388671874,10.143035333251953
1651171059.8840482,0.0033289513625990473,0.004660531907638666,-0.034088461953014244,0.21607669982910155,0.2561795776367187,9.4098110748291
1651171059.8940396,-0.0015978966540475428,0.0066579027251980945,-0.03382214584400632,-0.07242460021972656,0.1592144104003906,10.308833798217773
1651171059.904048,-0.005193164125654515,-0.0021305288720633903,-0.032357407244462746,0.4483142608642578,-0.023343466186523436,9.414599478149414
1651171059.9140399,-0.003062635253591124,0.0073236929977179045,-0.03275688140797463,0.10953472595214843,-0.07422025146484375,10.214262832641602
1651171059.9240477,-0.0027963191445832,0.003062635253591124,-0.031025826699423126,0.22266075439453123,0.37708676147460934,9.546280569458007
1651171059.93404,-0.012783173232380343,0.0014647385995435807,-0.03022687837239935,0.017357962036132813,-0.26276363220214843,10.212467181396484
1651171059.9440475,-0.005193164125654515,-0.00346210941710301,-0.029294771990871618,0.17776947326660156,0.05386953735351562,9.458293658447266
1651171059.9540403,-0.009986854087797143,-0.005725796343670361,-0.029294771990871618,0.16340426330566404,0.15741875915527342,10.038887561035155
1651171059.9640472,-0.012783173232380343,-0.006391586616190171,-0.027430559227816155,0.3094505645751953,-0.1945288848876953,9.669581954956055
1651171059.9740407,-0.008655273542757524,-0.0049268480166465905,-0.029161613936367656,0.22026655273437498,0.10295067138671875,9.996989031982421
1651171059.984047,-0.011717908796348646,-0.0038615835806148956,-0.027031085064304263,0.11013327636718749,0.023343466186523436,9.731232647705077
1651171059.994041,-0.011451592687340723,-0.007856325215733753,-0.0268979270098003,0.0909796630859375,0.07242460021972656,9.943119494628906
1651171060.0040467,-0.012383699068868458,-0.011851066850852611,-0.025433188410256723,0.18734627990722655,-0.17896657409667968,9.726444244384766
1651171060.0140412,-0.009187905760773371,-0.014913702104443732,-0.024634240083232953,0.25139117431640623,0.22266075439453123,9.956886154174803
1651171060.0240467,-0.01611212459497939,-0.01611212459497939,-0.023835291756209184,0.31483751831054685,-0.36691140441894526,9.801861596679688
1651171060.0340414,-0.009321063815277333,-0.012250541014364496,-0.021837920938649752,0.2663549346923828,0.10414777221679687,9.810839852905273
1651171060.0440464,-0.014514227940931847,-0.013049489341388266,-0.020106866230098247,0.08200140686035155,-0.07601590270996093,9.97783541870117
1651171060.0540419,-0.015046860158947694,-0.018375811521546742,-0.01890844373956259,0.11073182678222655,-0.201112939453125,9.76175871887207
1651171060.0640464,-0.011851066850852611,-0.022237395102161637,-0.018508969576050704,0.17896657409667968,0.014963760375976562,9.836577520751952
1651171060.074042,-0.015446334322459582,-0.025566346464760685,-0.017177389031011087,0.32561142578124996,-0.0383072265625,9.873687646484374
1651171060.084046,-0.01611212459497939,-0.023036343429185407,-0.016378440703987314,0.32620997619628905,-0.15083470458984374,9.880870251464843
1651171060.0940423,-0.015180018213451656,-0.021837920938649752,-0.015180018213451656,0.25917232971191406,-0.09756371765136718,9.788094937133788
1651171060.1040456,-0.013582121559404116,-0.02250371121116956,-0.014114753777419962,0.1406593475341797,0.11372457885742186,9.941922393798828
1651171060.1140428,-0.019307917903074477,-0.02583266257376861,-0.011584750741844684,0.17597382202148437,-0.31064766540527344,9.835380419921874
1651171060.1240454,-0.012916331286884304,-0.028229507554839925,-0.010253170196805066,0.25318682556152344,0.10654197387695312,9.97244846496582
1651171060.1340427,-0.01597896654047543,-0.029294771990871618,-0.009321063815277333,0.37409400939941406,-0.0652419952392578,9.821015209960937
1651171060.144045,-0.015446334322459582,-0.027430559227816155,-0.009454221869781294,0.3441664886474609,-0.1227028350830078,9.879074600219726
1651171060.154043,-0.014647385995435809,-0.02583266257376861,-0.007723167161229791,0.24600422058105467,-0.13646949462890623,9.882067352294921
1651171060.1640449,-0.012916331286884304,-0.028362665609343887,-0.006125270507182248,0.1879448303222656,-0.05027823486328125,9.923367330932617
1651171060.1740432,-0.01384843766841204,-0.031025826699423126,-0.005858954398174323,0.2376245147705078,-0.14724340209960937,9.792284790039062
1651171060.1840446,-0.01251685712337242,-0.03289003946247859,-0.004660531907638666,0.32142157287597656,-0.24121581726074218,9.98561657409668
1651171060.1940434,-0.009321063815277333,-0.031558458917438977,-0.003062635253591124,0.4177881896972656,-0.00718260498046875,9.897031112670899
1651171060.2040443,-0.012383699068868458,-0.030493194481407273,-0.002663161090079238,0.4004302276611328,-0.12509703674316405,9.93952819213867
1651171060.2140439,-0.0111852765783328,-0.02876213977285577,-0.001731054708551505,0.2765302917480469,-0.10414777221679687,9.970652813720703
1651171060.224044,-0.011584750741844684,-0.029827404208887465,-0.0009321063815277333,0.2920926025390625,-0.12210428466796874,9.879074600219726
1651171060.234044,-0.010785802414820914,-0.030892668644919165,-0.0010652644360316951,0.26336218261718747,-0.04129997863769531,9.9461122467041
1651171060.2440438,-0.012383699068868458,-0.032490565298966705,0.0005326322180158476,0.35613749694824215,-0.16639701538085935,9.904812268066406
1651171060.2540443,-0.008788431597261486,-0.031691616971942935,0.0007989483270237714,0.4159925384521484,-0.14604630126953125,9.928155734252929
1651171060.2640436,-0.007190534943213943,-0.028895297827359733,0.0019973708175594286,0.39324762268066404,-0.05386953735351562,9.86351228942871
1651171060.2740445,-0.008655273542757524,-0.028229507554839925,0.0027963191445832,0.3363853332519531,-0.14784195251464843,9.97783541870117
1651171060.2840433,-0.005326322180158476,-0.02942793004537558,0.0031957933080950856,0.33518823242187495,-0.09636661682128905,9.890447058105469
1651171060.2940447,-0.004793689962142629,-0.03142530086293501,0.004127899689622819,0.39145197143554683,-0.0383072265625,9.95329485168457
1651171060.304043,-0.0038615835806148956,-0.029827404208887465,0.00346210941710301,0.4477157104492187,0.011971008300781249,10.002375985717773
1651171060.3140452,-0.006125270507182248,-0.02783003339132804,0.005060006071150552,0.4177881896972656,-0.17298106994628906,9.928754284667969
1651171060.3240428,-0.0014647385995435807,-0.0251668723012488,0.0042610577441267805,0.4339490509033203,-0.031124621582031248,9.898228213500976
1651171060.3340452,-0.0027963191445832,-0.02530003035575276,0.00625842856168621,0.3268085266113281,-0.03651157531738281,10.01674119567871
1651171060.3440425,-0.003062635253591124,-0.027563717282320117,0.0066579027251980945,0.32561142578124996,-0.16280571289062498,9.892841259765625
1651171060.3540454,-0.002663161090079238,-0.029694246154383503,0.007590009106725828,0.3962403747558593,-0.16519991455078123,10.036493359375
1651171060.3640423,0.0010652644360316951,-0.02876213977285577,0.008788431597261486,0.4656722229003906,0.09995791931152344,10.007762939453125
1651171060.3740458,-0.0033289513625990473,-0.02436792397422503,0.008255799379245638,0.4674678741455078,-0.11851298217773437,9.974244116210937
1651171060.3840423,-0.001331580545039619,-0.022903185374681445,0.00972053797878922,0.4159925384521484,-0.1514332550048828,9.989806427001952
1651171060.394046,0.0029294771990871615,-0.021305288720633905,0.008921589651765448,0.36272155151367186,0.17597382202148437,9.994594830322265
1651171060.404042,-0.001731054708551505,-0.023036343429185407,0.01038632825130903,0.38845921936035155,-0.19572598571777342,9.917381826782226
1651171060.4140463,0.0015978966540475428,-0.023835291756209184,0.009587379924285258,0.4273649963378906,-0.12689268798828124,9.974244116210937
1651171060.4240417,0.0031957933080950856,-0.022636869265673522,0.011052118523828838,0.4608838195800781,0.010773907470703125,10.014945544433592
1651171060.4340465,0.0022636869265673524,-0.02037318233910617,0.01251685712337242,0.46627077331542965,-0.027533319091796873,9.90840357055664
1651171060.4440415,0.0023968449810713144,-0.019174759848570515,0.01384843766841204,0.36272155151367186,-0.24061726684570311,10.022726699829102
1651171060.4540467,0.005326322180158476,-0.02037318233910617,0.013049489341388266,0.3315969299316406,0.1005564697265625,9.9461122467041
1651171060.4640412,0.0038615835806148956,-0.02250371121116956,0.014647385995435809,0.3705027069091797,-0.017357962036132813,9.986215124511718
1651171060.4740472,0.004127899689622819,-0.02503371424674484,0.015579492376963544,0.47165772705078124,-0.12808978881835936,9.99220062866211
1651171060.484041,0.005725796343670361,-0.022104237047657675,0.016511598758491276,0.5452794281005859,0.1197100830078125,9.958681805419921
1651171060.4940474,0.003994741635118857,-0.0167779148674992,0.016378440703987314,0.49859249572753905,-0.004189852905273437,9.976638317871092
1651171060.5040407,0.0021305288720633903,-0.01597896654047543,0.01890844373956259,0.3507505432128906,-0.1131260284423828,9.99220062866211
1651171060.5140476,0.004793689962142629,-0.018375811521546742,0.01890844373956259,0.33039982910156246,0.05027823486328125,9.917381826782226
1651171060.5240405,0.0035952674716069714,-0.0223705531566656,0.020106866230098247,0.3956418243408203,-0.034715924072265626,9.929951385498047
1651171060.5340478,0.005193164125654515,-0.025433188410256723,0.022636869265673522,0.49679684448242184,-0.04668693237304687,10.001178884887695
1651171060.5440402,0.00692421883420602,-0.023835291756209184,0.022903185374681445,0.612915625,0.05327098693847656,9.96586441040039
1651171060.554048,0.0049268480166465905,-0.018642127630554665,0.02436792397422503,0.5614402893066406,0.08918401184082031,9.970652813720703
1651171060.56404,0.005060006071150552,-0.01611212459497939,0.02530003035575276,0.4082113830566406,-0.10235212097167969,9.90840357055664
1651171060.5740483,0.007057376888709981,-0.018775285685058627,0.026498452846288417,0.2651578338623047,0.0909796630859375,9.949703549194336
1651171060.5840397,0.005326322180158476,-0.024501082028728992,0.026232136737280493,0.36391865234375,0.02154781494140625,9.889848507690429
1651171060.5940487,0.004127899689622819,-0.02769687533682408,0.028362665609343887,0.5183446594238281,-0.21068974609375,9.962871658325195
1651171060.6040397,0.007989483270237714,-0.02423476591972107,0.02876213977285577,0.6548141540527344,0.07422025146484375,10.001777435302733
1651171060.614049,0.005992112452678286,-0.02024002428460221,0.030892668644919165,0.6105214233398437,0.04848258361816406,9.941323843383788
1651171060.6240392,0.005992112452678286,-0.01611212459497939,0.030759510590415203,0.4112041351318359,-0.12449848632812499,9.970652813720703
1651171060.6340492,0.007057376888709981,-0.01691107292200316,0.0318247750264469,0.29867665710449215,0.04608838195800781,9.865307940673828
1651171060.6440392,0.007590009106725828,-0.022104237047657675,0.0318247750264469,0.3298012786865234,0.1083376251220703,9.958681805419921
1651171060.654049,0.0049268480166465905,-0.02783003339132804,0.03209109113545482,0.5165490081787109,-0.13946224670410157,9.87608184814453
1651171060.6640396,0.006125270507182248,-0.02436792397422503,0.033156355571486516,0.623090982055664,-0.09935936889648436,9.967660061645507
1651171060.6740487,0.00625842856168621,-0.0195742340120824,0.035819516661565756,0.6889315277099609,0.05626373901367187,9.858125335693359
1651171060.6840398,0.005858954398174323,-0.013981595722916,0.036618464988589526,0.4656722229003906,-0.047285482788085934,10.038289010620117
1651171060.6940484,0.005060006071150552,-0.01478054404993977,0.03888215191515688,0.36810850524902344,-0.07601590270996093,9.771934075927733
1651171060.70404,0.00625842856168621,-0.019174759848570515,0.03874899386065292,0.36152445068359373,0.03172317199707031,9.980229620361328
1651171060.7140481,0.0055926382891664,-0.02316950148368937,0.0391484680241648,0.51714755859375,0.10235212097167969,9.829993466186522
1651171060.7240403,0.004527373853134705,-0.02316950148368937,0.040080574405692536,0.6841431243896484,-0.1879448303222656,9.93952819213867
1651171060.734048,0.006524744670694133,-0.017710021249026934,0.04127899689622819,0.6643909606933593,0.0143652099609375,9.889848507690429
1651171060.7440405,0.007057376888709981,-0.011851066850852611,0.041944787168748006,0.47764323120117186,0.1149216796875,9.96586441040039
1651171060.7540476,0.003728425526110933,-0.011451592687340723,0.04420847409531535,0.3489548919677734,-0.1514332550048828,9.871891995239258
1651171060.7640407,0.005725796343670361,-0.017044230976507122,0.04554005464035497,0.38307226562499996,-0.11133037719726561,9.86351228942871
1651171060.7740474,0.0066579027251980945,-0.021038972611625982,0.045273738531347044,0.5153519073486328,0.1693897674560547,9.931747036743163
1651171060.784041,0.0033289513625990473,-0.02024002428460221,0.0464721610218827,0.6859387756347656,-0.105344873046875,9.842563024902343
1651171060.794047,0.005326322180158476,-0.014381069886427886,0.047803741566922325,0.6560112548828124,-0.20051438903808594,9.973645565795898
1651171060.8040414,0.008255799379245638,-0.01038632825130903,0.04926848016646591,0.5518634826660156,0.15562310791015624,9.851541281127929
1651171060.8140469,0.004127899689622819,-0.008788431597261486,0.04940163822096987,0.3555389465332031,-0.08678981018066406,9.861716638183593
1651171060.8240414,0.004660531907638666,-0.013981595722916,0.05073321876600949,0.39923312683105466,-0.20171148986816406,9.789292037963866
1651171060.8340466,0.010120012142301104,-0.017976337358034857,0.050466902657001565,0.5267243652343749,0.11133037719726561,9.950302099609374
1651171060.8440418,0.007456851052221866,-0.01691107292200316,0.05259743152906495,0.6350619903564453,0.029927520751953124,9.84555577697754
1651171060.8540463,0.005992112452678286,-0.01251685712337242,0.054062170128608526,0.6811503723144531,-0.31962592163085934,9.89583401184082
1651171060.864042,0.012383699068868458,-0.006791060779702058,0.054727960401128345,0.5913678100585937,0.11252747802734374,9.809044201660155
1651171060.874046,0.008655273542757524,-0.0049268480166465905,0.05526059261914419,0.38307226562499996,0.10714052429199218,9.861118087768554
1651171060.8840423,0.006524744670694133,-0.008522115488253561,0.05486111845563231,0.36391865234375,-0.30346506042480464,9.832986218261718
1651171060.8940458,0.013315805450396189,-0.011584750741844684,0.056192699000671927,0.5117606048583984,-0.011971008300781249,9.841365924072266
1651171060.9040425,0.013582121559404116,-0.01265001517787638,0.05685848927319174,0.6063315704345703,0.11552023010253906,9.90241806640625
1651171060.9140458,0.008255799379245638,-0.009853696033293181,0.059787966472278894,0.7122749938964843,-0.3028665100097656,9.8449572265625
1651171060.9240427,0.015313176267955617,-0.0027963191445832,0.06072007285380662,0.5847837554931641,-0.06823474731445311,9.847351428222655
1651171060.9340453,0.015046860158947694,-0.0018642127630554665,0.061519021180830406,0.4267664459228515,0.24001871643066405,9.81263550415039
1651171060.9440432,0.011984224905356573,-0.004394215798630743,0.06218481145335021,0.3190273712158203,-0.27293898925781246,9.87727894897461
1651171060.954045,0.01611212459497939,-0.0083889574337496,0.062317969507854176,0.4333505004882812,-0.10594342346191406,9.805452899169921
1651171060.9640434,0.017710021249026934,-0.010785802414820914,0.0632500758893819,0.5985504150390625,0.14245499877929688,9.9078050201416
1651171060.9740448,0.01251685712337242,-0.007590009106725828,0.06351639199838983,0.6679822631835937,-0.1562216583251953,9.956886154174803
1651171060.9840436,0.01611212459497939,-0.0010652644360316951,0.06764429168801264,0.6787561706542968,-0.24779987182617186,9.7928833404541
1651171060.9940445,0.020639498448114094,0.003728425526110933,0.0671116594699968,0.4572925170898437,0.23044190979003906,9.958681805419921
1651171061.0040438,0.014381069886427886,-0.0005326322180158476,0.06884271417854831,0.3435679382324219,-0.08978256225585937,9.767145672607422
1651171061.0140445,0.018508969576050704,-0.003728425526110933,0.06897587223305227,0.3573345977783203,-0.2232593048095703,9.880271701049804
1651171061.024044,0.021038972611625982,-0.008255799379245638,0.06884271417854831,0.527322915649414,0.15382745666503905,9.835380419921874
1651171061.0340443,0.019174759848570515,-0.004793689962142629,0.07123955915961962,0.6404489440917969,-0.08499415893554688,9.974842666625976
1651171061.0440443,0.019840550121090324,0.0014647385995435807,0.0720385074866434,0.6530185028076172,-0.21308394775390624,9.76774422302246
1651171061.054044,0.02316950148368937,0.0055926382891664,0.07297061386817112,0.4572925170898437,0.08559270935058594,9.964068759155273
1651171061.0640447,0.021305288720633905,0.005326322180158476,0.07297061386817112,0.30526071166992186,0.07481880187988281,9.775525378417969
1651171061.0740438,0.020106866230098247,-0.0018642127630554665,0.0737695621951949,0.3298012786865234,-0.2609679809570312,9.872490545654296
1651171061.084045,0.02609897868277653,-0.005459480234662438,0.07430219441321075,0.5291185668945312,0.1370680450439453,9.85692823486328
1651171061.0940435,0.02250371121116956,-0.0038615835806148956,0.07603324912176225,0.7044938385009765,0.020949264526367185,9.96047745666504
1651171061.1040452,0.021971078993153714,0.001331580545039619,0.07669903939428206,0.6434416961669921,-0.16519991455078123,9.86411083984375
1651171061.1140432,0.026498452846288417,0.0073236929977179045,0.07763114577580979,0.43454760131835934,0.1322796417236328,9.931148486328125
1651171061.1240454,0.02503371424674484,0.007190534943213943,0.07776430383031376,0.2807201446533203,0.105344873046875,9.83897172241211
1651171061.134043,0.022903185374681445,0.001731054708551505,0.07816377799382564,0.2867056488037109,-0.11372457885742186,9.93354268798828
1651171061.1440456,0.026631610900792378,-0.003994741635118857,0.07843009410283357,0.48123453369140623,0.05386953735351562,9.88386300354004
1651171061.1540427,0.026365294791784455,-0.0038615835806148956,0.07882956826634545,0.6500257507324219,0.14125789794921875,9.983820922851562
1651171061.1640458,0.02316950148368937,0.0014647385995435807,0.08082693908390487,0.7032967376708984,-0.09157821350097656,9.873089096069336
1651171061.1740425,0.02609897868277653,0.008255799379245638,0.08082693908390487,0.4177881896972656,0.07302315063476562,9.97184991455078
1651171061.184046,0.02676476895529634,0.007590009106725828,0.08149272935642468,0.28790274963378903,0.2154781494140625,9.789890588378906
1651171061.1940422,0.02423476591972107,0.0023968449810713144,0.08082693908390487,0.22505495605468748,-0.07362170104980469,9.95987890625
1651171061.2040462,0.026631610900792378,-0.004527373853134705,0.07962851659336923,0.4429273071289062,0.09696516723632811,9.82580361328125
1651171061.2140422,0.026498452846288417,-0.0042610577441267805,0.08189220351993656,0.6769605194091797,0.14125789794921875,9.988609326171874
1651171061.2240465,0.024501082028728992,0.0018642127630554665,0.08202536157444053,0.7009025360107421,0.0017956512451171875,9.949703549194336
1651171061.2340417,0.025699504519264647,0.009853696033293181,0.0832237840649762,0.4435258575439453,0.03591302490234375,9.917980377197265
1651171061.2440467,0.0251668723012488,0.010918960469324876,0.08255799379245637,0.20470424194335937,0.20769699401855468,9.865307940673828
1651171061.2540414,0.02316950148368937,0.0015978966540475428,0.08269115184696034,0.1867477294921875,0.08798691101074219,9.936535440063476
1651171061.2640471,0.02343581759269729,-0.005992112452678286,0.08175904546543261,0.3908534210205078,0.005985504150390624,9.97184991455078
1651171061.2740412,0.02316950148368937,-0.008255799379245638,0.08295746795596827,0.7356184600830078,0.17298106994628906,9.852139831542969
1651171061.2840474,0.02077265650261806,0.0018642127630554665,0.08455536461001581,0.690128628540039,0.08379705810546874,10.058639724731444
1651171061.294041,0.020506340393610132,0.008522115488253561,0.08548747099154355,0.4638765716552734,0.10714052429199218,9.85692823486328
1651171061.3040476,0.021038972611625982,0.010120012142301104,0.08522115488253562,0.12629413757324218,0.2472013214111328,9.975441217041014
1651171061.3140404,0.01810949541253882,0.0010652644360316951,0.08628641931856731,0.14125789794921875,0.12509703674316405,9.891644158935547
1651171061.3240478,0.01810949541253882,-0.008122641324741676,0.08641957737307128,0.39324762268066404,0.12629413757324218,10.027515103149414
1651171061.3340404,0.017044230976507122,-0.010120012142301104,0.08628641931856731,0.6865373260498047,0.21906945190429686,9.938331091308592
1651171061.344048,0.013582121559404116,-0.0011984224905356572,0.08748484180910297,0.699106884765625,0.11372457885742186,10.022726699829102
1651171061.3540401,0.015046860158947694,0.006791060779702058,0.08921589651765448,0.4896142395019531,0.21188684692382811,9.898228213500976
1651171061.3640482,0.014114753777419962,0.008788431597261486,0.08908273846315051,0.15502455749511718,0.24061726684570311,9.945513696289062
1651171061.37404,0.010785802414820914,-0.0002663161090079238,0.08961537068116636,0.12090718383789062,0.17597382202148437,9.945513696289062
1651171061.3840487,0.010652644360316953,-0.010120012142301104,0.09094695122620598,0.4465186096191406,0.14963760375976562,9.913191973876952
1651171061.3940396,0.011318434632836761,-0.010519486305812991,0.09041431900819014,0.6913257293701172,0.2819172454833984,10.031106405639648
1651171061.404049,0.006791060779702058,-0.0033289513625990473,0.09307748009826937,0.7350199096679687,0.08080430603027343,9.988010775756836
1651171061.4140394,0.0083889574337496,0.007190534943213943,0.09374327037078917,0.4626794708251953,0.23523031311035156,9.976638317871092
1651171061.4240491,0.00625842856168621,0.007989483270237714,0.09214537371674163,0.15682020874023436,0.34715924072265625,9.93952819213867
1651171061.4340394,0.0027963191445832,-0.0009321063815277333,0.09254484788025352,0.12629413757324218,0.030526071166992186,9.958681805419921
1651171061.4440491,0.003994741635118857,-0.009853696033293181,0.09307748009826937,0.40761283264160153,0.22445640563964842,9.966462960815429
1651171061.4540396,0.0018642127630554665,-0.009853696033293181,0.09214537371674163,0.6925228302001952,0.2962824554443359,10.008960040283203
1651171061.4640486,-0.0010652644360316951,-0.0011984224905356572,0.09267800593475747,0.7074865905761718,0.05386953735351562,10.035894808959961
1651171061.4740398,0.0002663161090079238,0.007723167161229791,0.09427590258880504,0.4381389038085937,0.18734627990722655,9.97184991455078
1651171061.4840488,0.0002663161090079238,0.009187905760773371,0.09334379620727729,0.1562216583251953,0.40880993347167965,9.988010775756836
1651171061.4940403,-0.005992112452678286,0.0015978966540475428,0.09387642842529313,0.17238251953125,0.15203180541992187,9.950302099609374
1651171061.5040486,-0.0033289513625990473,-0.00692421883420602,0.09454221869781296,0.4273649963378906,0.14185644836425781,9.906009368896484
1651171061.5140405,-0.0035952674716069714,-0.005858954398174323,0.09307748009826937,0.6350619903564453,0.4207809417724609,10.076596237182617
1651171061.5240483,-0.009187905760773371,0.0029294771990871615,0.09494169286132485,0.613514175415039,0.029328970336914062,9.950302099609374
1651171061.5340407,-0.006391586616190171,0.010120012142301104,0.09560748313384465,0.354341845703125,0.12868833923339842,9.94730934753418
1651171061.544048,-0.007856325215733753,0.007190534943213943,0.09733853784239616,0.19632453613281248,0.31962592163085934,9.923965881347655
1651171061.554041,-0.01038632825130903,-0.0007989483270237714,0.097871170060412,0.2902969512939453,0.2232593048095703,9.973645565795898
1651171061.5640478,-0.013049489341388266,-0.005326322180158476,0.09973538282346747,0.48123453369140623,-0.044891281127929686,9.841365924072266
1651171061.5740411,-0.0083889574337496,-0.0033289513625990473,0.09946906671445954,0.5877765075683593,0.4327519500732422,10.034099157714843
1651171061.5840476,-0.015180018213451656,0.0029294771990871615,0.09840380227842785,0.5057751007080078,0.12030863342285156,9.925162982177733
1651171061.5940413,-0.015046860158947694,0.006391586616190171,0.09973538282346747,0.24600422058105467,-0.023942016601562498,9.93354268798828
1651171061.6040473,-0.012383699068868458,0.001731054708551505,0.10080064725949917,0.16280571289062498,0.24001871643066405,9.906607919311522
1651171061.6140418,-0.01611212459497939,-0.006391586616190171,0.10266486002255462,0.3848679168701172,0.24061726684570311,9.929951385498047
1651171061.624047,-0.017044230976507122,-0.00692421883420602,0.10266486002255462,0.5578489868164063,-0.001197100830078125,9.893439810180663
1651171061.634042,-0.016245282649483352,-0.0018642127630554665,0.10333065029507443,0.5805939025878906,0.03890577697753906,9.85692823486328
1651171061.6440468,-0.01265001517787638,0.004527373853134705,0.10399644056759424,0.3447650390625,0.41359833679199215,9.973645565795898
1651171061.6540422,-0.02090581455712202,0.001731054708551505,0.10452907278561009,0.17357962036132812,-0.08678981018066406,9.90122096557617
1651171061.6640463,-0.015180018213451656,-0.006791060779702058,0.10599381138515367,0.18614917907714842,0.022744915771484374,9.868300692749022
1651171061.6740425,-0.014514227940931847,-0.014381069886427886,0.1075917080392012,0.5051765502929687,0.296881005859375,9.880271701049804
1651171061.6840463,-0.017177389031011087,-0.010652644360316953,0.10705907582118536,0.612915625,0.09935936889648436,9.931148486328125
1651171061.6940427,-0.019174759848570515,-0.005326322180158476,0.10825749831172102,0.5584475372314452,-0.1849520782470703,9.791087689208984
1651171061.704046,-0.012117382959860534,-0.0001331580545039619,0.10879013052973689,0.19033903198242186,0.32022447204589843,10.003573086547851
1651171061.714043,-0.018375811521546742,-0.006125270507182248,0.10945592080225669,0.11552023010253906,0.1897404815673828,9.770138424682617
1651171061.7240458,-0.02024002428460221,-0.014247911831923924,0.11105381745630424,0.2537853759765625,-0.34835634155273437,9.980828170776366
1651171061.7340431,-0.011717908796348646,-0.019174759848570515,0.11278487216485573,0.6290764862060546,0.21906945190429686,9.877877499389648
1651171061.7440455,-0.015313176267955617,-0.01344896350490015,0.11331750438287158,0.6308721374511719,0.27353753967285155,9.9461122467041
1651171061.7540433,-0.02077265650261806,-0.005858954398174323,0.11278487216485573,0.4644751220703125,-0.3064578125,9.772532626342773
1651171061.764045,-0.01251685712337242,-0.0042610577441267805,0.11331750438287158,0.10654197387695312,0.01975216369628906,9.989207876586914
1651171061.7740436,-0.011318434632836761,-0.015046860158947694,0.11211908189233594,0.2136824981689453,0.36272155151367186,9.775525378417969
1651171061.784045,-0.018775285685058627,-0.022770027320177483,0.11385013660088743,0.4291606475830078,-0.2753331909179687,9.991003527832031
1651171061.794044,-0.010519486305812991,-0.0223705531566656,0.11478224298241517,0.7799111907958984,-0.03890577697753906,9.72285294189453
1651171061.8040447,-0.00625842856168621,-0.011318434632836761,0.11411645270989536,0.5345055206298828,0.3172317199707031,10.070012182617187
1651171061.8140442,-0.013715279613908078,-0.006125270507182248,0.11358382049187951,0.3716998077392578,-0.1466448516845703,9.694721072387695
1651171061.8240445,-0.010253170196805066,-0.009986854087797143,0.11318434632836763,0.0526724365234375,-0.296881005859375,9.993996279907225
1651171061.8340445,-0.0019973708175594286,-0.0223705531566656,0.1146490849279112,0.26396073303222656,0.32561142578124996,9.705494979858399
1651171061.8440442,-0.009986854087797143,-0.027563717282320117,0.1146490849279112,0.5979518646240234,-0.11552023010253906,10.08677159423828
1651171061.8540447,-0.005459480234662438,-0.02250371121116956,0.11531487520043102,0.8062474090576172,-0.29448680419921874,9.75517466430664
1651171061.864044,-0.0018642127630554665,-0.009454221869781294,0.11611382352745478,0.5117606048583984,0.24361001892089842,9.924564431762695
1651171061.874045,-0.00625842856168621,-0.006125270507182248,0.11558119130943893,0.12330138549804687,-0.004189852905273437,9.829394915771484
1651171061.8840437,-0.003728425526110933,-0.01597896654047543,0.11558119130943893,0.016160861206054686,-0.30466216125488277,9.842563024902343
1651171061.894045,0.0018642127630554665,-0.02876213977285577,0.11638013963646271,0.37768531188964843,0.047884033203124995,9.849745629882811
1651171061.9040434,-0.0001331580545039619,-0.031025826699423126,0.11731224601799044,0.795473501586914,0.15382745666503905,9.961674557495117
1651171061.9140456,-0.0019973708175594286,-0.019973708175594285,0.1174454040724944,0.8804676605224608,-0.31064766540527344,9.805452899169921
1651171061.9240432,0.005459480234662438,-0.004127899689622819,0.11651329769096666,0.4447229583740234,0.10175357055664062,9.879673150634765
1651171061.9340456,0.00346210941710301,-0.004660531907638666,0.11584750741844686,-0.023942016601562498,0.054468087768554684,9.890447058105469
1651171061.944043,0.0033289513625990473,-0.021172130666129944,0.11544803325493497,0.054468087768554684,-0.24779987182617186,9.80605144958496
1651171061.9540458,0.009321063815277333,-0.03368898778950236,0.11544803325493497,0.5392939239501953,-0.07900865478515624,9.966462960815429
1651171061.9640427,0.007190534943213943,-0.030093720317895388,0.11811119434501421,1.0366893188476562,-0.044891281127929686,9.77492682800293
1651171061.974046,0.008921589651765448,-0.011851066850852611,0.11677961379997459,0.8361749298095703,-0.08080430603027343,10.019135397338866
1651171061.9840424,0.008921589651765448,0.0009321063815277333,0.11731224601799044,0.3016694091796875,-0.11133037719726561,9.72943699645996
1651171061.9940462,0.011851066850852611,-0.0029294771990871615,0.11664645574547063,-0.08499415893554688,-0.04668693237304687,9.992799179077148
1651171062.0040421,0.014247911831923924,-0.021837920938649752,0.11611382352745478,0.12210428466796874,-0.0430956298828125,9.7928833404541
1651171062.0140464,0.013049489341388266,-0.034088461953014244,0.11731224601799044,0.7445967163085937,-0.1197100830078125,9.993397729492187
1651171062.024042,0.013981595722916,-0.024501082028728992,0.11638013963646271,1.1845312713623046,-0.12030863342285156,9.824007962036132
1651171062.034047,0.016511598758491276,-0.0021305288720633903,0.11611382352745478,0.776319888305664,0.10654197387695312,10.004770187377929
1651171062.0440416,0.017177389031011087,0.008122641324741676,0.11491540103691912,0.08918401184082031,-0.10235212097167969,9.752780462646484
1651171062.054047,0.0195742340120824,-0.004394215798630743,0.1157143493639429,-0.22266075439453123,-0.11252747802734374,9.92755718383789
1651171062.0640416,0.023968449810713145,-0.026365294791784455,0.1157143493639429,0.32620997619628905,0.0718260498046875,9.815628256225585
1651171062.0740473,0.02090581455712202,-0.032490565298966705,0.11544803325493497,0.9929951385498046,-0.04848258361816406,9.982623822021484
1651171062.084041,0.021305288720633905,-0.015446334322459582,0.11624698158195874,1.2413935607910156,-0.12210428466796874,9.916783276367187
1651171062.0940475,0.024767398137736915,0.009986854087797143,0.11611382352745478,0.5458779785156249,0.07601590270996093,9.984419473266602
1651171062.1040409,0.023702133701705222,0.01478054404993977,0.11584750741844686,-0.12090718383789062,0.06045359191894531,9.7162688873291
1651171062.114048,0.0223705531566656,-0.005060006071150552,0.1157143493639429,-0.26695348510742184,-0.23582886352539062,9.918578927612304
1651171062.1240406,0.027963191445832,-0.028895297827359733,0.11691277185447856,0.5039794494628906,0.040102877807617184,9.83777462158203
1651171062.134048,0.025433188410256723,-0.02942793004537558,0.11757856212699837,1.226429800415039,0.08738836059570312,9.988010775756836
1651171062.1440403,0.02436792397422503,-0.0031957933080950856,0.11717908796348647,1.180341418457031,-0.0909796630859375,9.937732540893554
1651171062.1540482,0.02676476895529634,0.021438446775137867,0.11624698158195874,0.4112041351318359,0.015562310791015624,9.84555577697754
1651171062.1640403,0.02716424311880823,0.019973708175594285,0.1146490849279112,-0.3902548706054687,0.18614917907714842,9.954491952514648
1651171062.1740484,0.02530003035575276,-0.006791060779702058,0.11504855909142309,-0.16041151123046873,-0.04848258361816406,9.803657247924804
1651171062.1840398,0.027563717282320117,-0.026498452846288417,0.11638013963646271,0.7104793426513671,-0.11611878051757812,9.945513696289062
1651171062.1940486,0.030493194481407273,-0.018642127630554665,0.1174454040724944,1.3742717529296875,0.29867665710449215,9.913790524291992
1651171062.2040396,0.0268979270098003,0.0111852765783328,0.11558119130943893,1.0582371337890624,0.11192892761230468,9.949703549194336
1651171062.2140489,0.026365294791784455,0.03222424918995878,0.11611382352745478,0.01975216369628906,-0.10235212097167969,9.834781869506836
1651171062.2240393,0.031025826699423126,0.019041601794066554,0.11704592990898252,-0.5339069702148437,0.24121581726074218,9.893439810180663
1651171062.2340493,0.026232136737280493,-0.011318434632836761,0.11664645574547063,-0.04908113403320312,0.17058686828613281,9.828796365356444
1651171062.2440393,0.02676476895529634,-0.02583266257376861,0.11957593294455779,0.9738415252685546,0.03232172241210937,9.996989031982421
1651171062.2540488,0.02530003035575276,-0.007856325215733753,0.12104067154410136,1.4514847564697264,-0.09756371765136718,9.994594830322265
1651171062.2640395,0.0318247750264469,0.02716424311880823,0.12037488127158155,0.7691372833251953,0.5793968017578125,10.001777435302733
1651171062.2740488,0.020106866230098247,0.03808320358813311,0.11970909099906175,-0.2262520568847656,-0.19931728820800781,9.819219558715819
1651171062.28404,0.02583266257376861,0.01810949541253882,0.12250541014364494,-0.5392939239501953,-0.05566518859863281,9.937133990478515
1651171062.2940485,0.028096349500335963,-0.013182647395892227,0.12317120041616478,0.1879448303222656,0.5614402893066406,9.775525378417969
1651171062.3040402,0.021438446775137867,-0.018508969576050704,0.12357067457967666,1.1988964813232421,0.09995791931152344,10.10053825378418
1651171062.3140485,0.021438446775137867,0.008921589651765448,0.12450278096120439,1.3934253662109375,-0.11252747802734374,9.864709390258788
1651171062.3240404,0.02876213977285577,0.04247741938676385,0.12503541317922023,0.3459621398925781,0.5584475372314452,10.089165795898436
1651171062.334048,0.022636869265673522,0.04061320662370838,0.12503541317922023,-0.5632359405517577,0.2597708801269531,9.666589202880859
1651171062.3440406,0.019840550121090324,0.012383699068868458,0.12543488734273212,-0.6260837341308594,-0.007781155395507812,10.007164389038085
1651171062.3540478,0.023036343429185407,-0.0195742340120824,0.125834361506244,0.5548562347412109,0.12090718383789062,9.717465988159178
1651171062.3640409,0.026232136737280493,-0.012250541014364496,0.12703278399677967,1.3862427612304686,0.7445967163085937,10.18313821105957
1651171062.3740475,0.012383699068868458,0.019973708175594285,0.12703278399677967,1.2779051361083984,-0.4267664459228515,9.801263046264648
1651171062.384041,0.027430559227816155,0.05020058654799364,0.1266333098332678,-0.07003039855957031,0.43454760131835934,10.147225186157225
1651171062.3940473,0.020639498448114094,0.03981425829668461,0.12876383870533117,-0.8032546569824218,0.44113165588378905,9.57620809020996
1651171062.4040413,0.01478054404993977,0.002663161090079238,0.1303617353593787,-0.5835866546630859,-0.033518823242187495,10.184335311889647
1651171062.414047,0.017576863194522972,-0.024634240083232953,0.13222594812243418,0.7990648040771484,0.2041056915283203,9.657610946655273
1651171062.4240417,0.01691107292200316,-0.007456851052221866,0.13076120952289058,1.4993687896728514,0.6123170745849609,10.226832391357421
1651171062.4340467,0.008122641324741676,0.03222424918995878,0.13022857730487475,0.9301473449707031,0.16879121704101563,9.727641345214844
1651171062.444042,0.010120012142301104,0.05539375067364816,0.1310275256318985,-0.5087678527832031,-0.029328970336914062,10.072406384277343
1651171062.4540465,0.014913702104443732,0.030759510590415203,0.1311606836864025,-0.9127893829345702,0.5961562133789062,9.661800799560547
1651171062.4640422,0.005193164125654515,-0.00692421883420602,0.13235910617693813,-0.37409400939941406,0.07781155395507812,10.234613546752929
1651171062.4740462,0.007456851052221866,-0.02783003339132804,0.13262542228594607,1.1982979309082031,0.13347674255371092,9.543287817382812
1651171062.4840424,0.0083889574337496,0.004127899689622819,0.1331580545039619,1.4173673828125,0.41898529052734373,10.472238061523436
1651171062.494046,0.0073236929977179045,0.04394215798630743,0.13275858034045002,0.6781576202392577,0.6530185028076172,9.643245736694336
1651171062.5040426,-0.0003994741635118857,0.0587227020362472,0.13195963201342625,-0.824802471923828,-0.2645592834472656,10.209474429321288
1651171062.5140457,0.011451592687340723,0.02330265953819333,0.13062805146838663,-0.9169792358398436,0.6607996582031249,9.50677624206543
1651171062.5240428,0.0042610577441267805,-0.012383699068868458,0.13009541925037077,-0.052073886108398436,0.39324762268066404,10.25376716003418
1651171062.5340455,-0.0010652644360316951,-0.02090581455712202,0.13289173839495397,1.3473369842529297,-0.21727380065917967,9.688137017822266
1651171062.544043,0.006391586616190171,0.016378440703987314,0.13448963504900152,1.2378022583007813,0.4632780212402344,10.381258398437499
1651171062.5540452,0.001331580545039619,0.05086637682051345,0.13369068672197776,0.21966800231933592,0.5722141967773438,9.673771807861328
1651171062.5640433,-0.007456851052221866,0.054062170128608526,0.13515542532152133,-1.0612298858642577,-0.07242460021972656,10.181941110229491
1651171062.574045,-0.001731054708551505,0.013049489341388266,0.13462279310350547,-0.7625532287597656,0.14484920043945312,9.437344393920897
1651171062.5840435,0.0005326322180158476,-0.017177389031011087,0.13355752866747378,0.2232593048095703,0.8876502655029296,10.349535226440429
1651171062.5940447,-0.013715279613908078,-0.015579492376963544,0.1331580545039619,1.5580267303466795,-0.12449848632812499,9.583989245605467
1651171062.6040437,-0.007989483270237714,0.02956108809987954,0.1338238447764817,0.8966285217285156,-0.16819266662597654,10.56022497253418
1651171062.6140444,0.0014647385995435807,0.05526059261914419,0.1338238447764817,-0.16819266662597654,1.0217255584716796,9.434950192260741
1651171062.6240442,-0.016378440703987314,0.044341632149819316,0.13475595115800945,-1.2114660400390624,-0.12689268798828124,10.319009155273436
1651171062.6340442,-0.007723167161229791,-0.0010652644360316951,0.1348891092125134,-0.5219359619140624,-0.24181436767578124,9.388861810302734
1651171062.6440444,0.002530003035575276,-0.022104237047657675,0.13302489644945795,0.5811924530029297,0.9247603912353515,10.375272894287109
1651171062.654044,-0.013182647395892227,-0.00905474770626941,0.13275858034045002,1.483806478881836,0.10354922180175781,9.67856021118164
1651171062.6640444,-0.010519486305812991,0.035020568334541986,0.1310275256318985,0.5482721801757812,-0.297479556274414,10.360907684326172
1651171062.6740437,-0.0033289513625990473,0.049002164057457984,0.13129384174090644,-0.5351040710449219,0.3387795349121094,9.449913952636718
1651171062.6840448,-0.00692421883420602,0.024634240083232953,0.13222594812243418,-1.246181964111328,0.6476315490722656,10.152013589477539
1651171062.6940434,-0.0195742340120824,-0.020506340393610132,0.13568805753953717,-0.24480711975097655,-0.6512228515624999,9.61451531677246
1651171062.704045,-0.0003994741635118857,-0.03222424918995878,0.13542174143052926,1.0229226593017577,0.6631938598632812,10.152013589477539
1651171062.714043,-0.013582121559404116,-0.002530003035575276,0.1359543736485451,1.313219610595703,0.46627077331542965,9.963470208740233
1651171062.7240453,-0.018375811521546742,0.03542004249805387,0.13515542532152133,0.30346506042480464,-0.3477577911376953,9.875483297729492
1651171062.734043,-0.008921589651765448,0.03795004553362914,0.1359543736485451,-0.9726444244384765,0.24001871643066405,9.83837317199707
1651171062.7440455,-0.010120012142301104,0.0009321063815277333,0.13688648003007284,-1.0402806213378906,0.6171054779052734,9.90181951599121
1651171062.7540426,-0.022770027320177483,-0.037550571370117254,0.14048174750167983,0.12389993591308593,-0.6368576416015624,9.802460147094726
1651171062.7640457,-0.0027963191445832,-0.03781688747912518,0.14141385388320754,1.2006921325683593,0.4333505004882812,10.058041174316406
1651171062.7740424,-0.013049489341388266,-0.002663161090079238,0.14327806664626302,1.2384008087158203,0.31543606872558594,9.919177478027343
1651171062.7840462,-0.015446334322459582,0.031558458917438977,0.14434333108229472,-0.0796072052001953,-0.3028665100097656,9.949703549194336
1651171062.794042,-0.005459480234662438,0.02436792397422503,0.14381069886427886,-1.1988964813232421,0.2442085693359375,9.717465988159178
1651171062.8040464,-0.008655273542757524,-0.01944107595757844,0.1447428052458066,-0.8271966735839843,0.24361001892089842,9.840168823242188
1651171062.8140416,-0.011984224905356573,-0.05060006071150552,0.14594122773634224,0.4034229797363281,-0.2567781280517578,10.10712230834961
1651171062.8240466,-0.008122641324741676,-0.04221110327775593,0.14980281131695714,1.4616601135253906,-0.02633621826171875,9.796474642944336
1651171062.8340416,-0.007057376888709981,-0.0009321063815277333,0.14980281131695714,1.024119760131836,0.00718260498046875,10.123881719970703
1651171062.8440468,-0.007723167161229791,0.025699504519264647,0.1516670240800126,-0.17776947326660156,0.15442600708007811,9.797671743774414
1651171062.8540413,-0.012783173232380343,0.013049489341388266,0.1548628173881077,-1.1378443389892579,-0.5524620330810547,9.877877499389648
1651171062.864047,0.0035952674716069714,-0.029960562263391426,0.15406386906108394,-0.6039373687744141,0.6081272216796875,9.637858782958984
1651171062.874041,-0.011717908796348646,-0.05153216709303326,0.15433018517009187,0.5829881042480468,-0.18076222534179687,10.013748443603514
1651171062.8840473,-0.0022636869265673524,-0.03888215191515688,0.1555286076606275,1.3467384338378905,-0.013168109130859374,9.93354268798828
1651171062.8940408,-0.0022636869265673524,-0.0002663161090079238,0.1600559815137622,0.8780734588623046,0.013168109130859374,9.910199221801758
1651171062.9040475,-0.0009321063815277333,0.021305288720633905,0.16231966844032955,-0.4100070343017578,-0.1352723937988281,9.925761532592773
1651171062.9140408,0.003062635253591124,0.005459480234662438,0.1615207201133058,-1.1324573852539062,0.2549824768066406,9.739612353515625
1651171062.9240477,-0.004394215798630743,-0.035819516661565756,0.1628523006583454,-0.507570751953125,-0.6440402465820312,9.980229620361328
1651171062.9340403,0.015046860158947694,-0.056991647327695696,0.16445019731239294,1.0319009155273438,0.6272808349609375,9.860519537353515
1651171062.944048,-0.0015978966540475428,-0.027430559227816155,0.16977651949255143,1.3718775512695311,-0.7541735229492187,10.379462747192383
1651171062.95404,0.016245282649483352,0.012916331286884304,0.16897757116552767,0.6560112548828124,0.5877765075683593,9.485228427124023
1651171062.9640484,0.0021305288720633903,0.03129214280843105,0.17044230976507124,-1.054645831298828,-0.38666356811523434,10.350732327270507
1651171062.9740398,0.012117382959860534,-0.009187905760773371,0.17243968058263068,-0.7984662536621093,0.07781155395507812,9.2182749420166
1651171062.9840486,0.010253170196805066,-0.03608583277057368,0.17710021249026933,-0.3938461730957031,-0.32501287536621093,10.913369717407226
1651171062.9940395,0.016644756812995237,-0.05552690872815212,0.17630126416324557,1.5915455535888672,0.21966800231933592,8.948927255249023
1651171063.0040488,0.00972053797878922,-0.005992112452678286,0.18069547996187632,1.0205284576416016,-0.575206948852539,11.353304272460937
1651171063.0140395,0.021172130666129944,0.019307917903074477,0.1828260088339397,0.7894879974365234,0.16519991455078123,8.587402804565428
1651171063.024049,0.01597896654047543,0.043675841877299504,0.18801917295959422,-1.2707225311279295,-0.40282442932128903,11.121066711425781
1651171063.0340393,0.028229507554839925,-0.003728425526110933,0.18429074743348325,-0.7673416320800781,0.709880792236328,8.234856610107421
1651171063.044049,0.010253170196805066,-0.031158984753927088,0.18815233101409817,-0.35673604736328124,-0.8182184173583984,11.725602630615233
1651171063.0540395,0.02956108809987954,-0.048869006002954025,0.19041601794066554,2.068590234375,-0.003591302490234375,8.03134946899414
1651171063.0640488,0.030892668644919165,0.01611212459497939,0.19347865319425664,0.7679401824951172,0.4944026428222656,11.867459078979492
1651171063.0740397,0.019307917903074477,0.0346210941710301,0.1940112854122725,0.4860229370117187,-0.2741360900878906,7.924208944702148
1651171063.0840485,0.02609897868277653,0.047803741566922325,0.1950765498483042,-1.5843629486083983,-0.37708676147460934,11.897985150146484
1651171063.09404,0.03262372335347067,-0.009454221869781294,0.19867181731991118,-0.3130418670654297,0.2603694305419922,7.71232209777832
1651171063.1040483,0.032357407244462746,-0.019973708175594285,0.1998702398104468,-0.08499415893554688,0.30466216125488277,11.98417640991211
1651171063.1140401,0.02356897564720126,-0.027031085064304263,0.20106866230098247,1.8501193328857422,-0.5716156463623047,8.194753732299803
1651171063.124048,0.03981425829668461,0.03222424918995878,0.20319919117304586,0.42437224426269526,0.2615665313720703,12.050615505981444
1651171063.1340404,0.03475425222553406,0.03968110024218065,0.20759340697167664,0.4261678955078125,0.25139117431640623,7.389703424072265
1651171063.1440477,0.03289003946247859,0.0531300637470808,0.20746024891717266,-1.7483657623291016,-0.23582886352539062,12.096105337524413
1651171063.1540406,0.03954794218767669,-0.005459480234662438,0.2069276166991568,-0.3447650390625,0.4285620971679687,8.084021905517577
1651171063.1640475,0.03209109113545482,-0.017177389031011087,0.21052288417076379,0.1580173095703125,-0.28431144714355466,11.81119533996582
1651171063.1740408,0.03994741635118857,-0.015313176267955617,0.21225393887931526,1.8620903411865233,0.10354922180175781,7.994239343261718
1651171063.1840472,0.04048004856920442,0.04620584491287478,0.21451762580588263,0.25737667846679685,0.20290859069824219,11.866860528564452
1651171063.194041,0.037550571370117254,0.05113269292952137,0.21651499662344204,-0.21966800231933592,0.4560954162597656,8.334215979003906
1651171063.204047,0.029960562263391426,0.04247741938676385,0.22064289631306488,-1.6346411834716796,-0.6021417175292968,11.396998452758789
1651171063.2140415,0.04580637074936289,-0.009853696033293181,0.22077605436756886,-0.1370680450439453,0.6775590698242188,8.090007409667969
1651171063.2240467,0.035153726389045944,-0.01384843766841204,0.220243422149553,0.28730419921875,0.33399113159179683,11.608286749267577
1651171063.2340415,0.031025826699423126,-0.004527373853134705,0.21891184160451338,1.513733999633789,-0.18136077575683593,8.789114294433594
1651171063.2440464,0.03568635860706179,0.042077945223251964,0.22383868962115996,0.22445640563964842,-0.1610100616455078,11.202469567871093
1651171063.254042,0.03968110024218065,0.0503337446024976,0.22650185071123918,-0.4656722229003906,0.4950011932373047,8.565256439208984
1651171063.2640462,0.032357407244462746,0.034088461953014244,0.2258360604387194,-1.5269021087646484,0.1592144104003906,10.918158120727538
1651171063.2740421,0.03222424918995878,-0.014247911831923924,0.22610237654772733,-0.15203180541992187,0.12389993591308593,8.75978532409668
1651171063.284046,0.0363521488795816,-0.017976337358034857,0.2267681668202471,0.5614402893066406,0.3333925811767578,11.004947930908202
1651171063.2940423,0.0346210941710301,0.0019973708175594286,0.22716764098375902,1.2150573425292968,0.4477157104492187,9.111134417724609
1651171063.3040457,0.03275688140797463,0.03981425829668461,0.22969764401933426,-0.14006079711914063,0.20530279235839843,10.803834991455078
1651171063.3140426,0.0318247750264469,0.0346210941710301,0.2299639601283422,-0.5602431884765625,0.09457096557617187,9.079411245727538
1651171063.3240454,0.03448793611652613,0.01810949541253882,0.2318281728913977,-1.0684124908447266,0.4291606475830078,10.439317788696288
1651171063.3340428,0.03142530086293501,-0.016245282649483352,0.2318281728913977,-0.11731588134765625,0.3902548706054687,9.205705383300781
1651171063.3440452,0.02716424311880823,-0.01824265346704278,0.23435817592697294,0.5871779571533203,0.1879448303222656,10.574590182495117
1651171063.354043,0.02676476895529634,0.003062635253591124,0.23409185981796504,0.7607575775146483,0.39145197143554683,9.781510882568359
1651171063.364045,0.025566346464760685,0.027963191445832,0.23369238565445316,-0.06883329772949218,0.6165069274902344,9.931747036743163
1651171063.3740432,0.015579492376963544,0.026232136737280493,0.2359560725810205,-0.8870517150878906,-0.03950432739257812,9.794678991699218
1651171063.3840446,0.023702133701705222,-0.0027963191445832,0.2363555467445324,-0.7523778717041015,0.9044096771240234,9.803657247924804
1651171063.3940434,0.01265001517787638,-0.024767398137736915,0.23555659841750862,-0.020949264526367185,0.06344634399414062,9.84555577697754
1651171063.4040444,0.02024002428460221,-0.025433188410256723,0.23449133398147692,0.8762778076171874,0.5877765075683593,9.822810861206055
1651171063.414044,0.0066579027251980945,0.005725796343670361,0.23675502090804426,0.4800374328613281,-0.36930560607910157,10.577582934570312
1651171063.4240441,0.0268979270098003,0.019840550121090324,0.23582291452651655,-0.08319850769042968,1.2336124053955078,9.39185456237793
1651171063.4340441,0.0009321063815277333,0.015046860158947694,0.23622238869002843,-0.9379285003662109,-0.3220201232910156,10.244190353393554
1651171063.4440439,0.015180018213451656,-0.013315805450396189,0.23582291452651655,-0.5333084197998047,0.5195417602539062,9.527126956176756
1651171063.4540443,0.010120012142301104,-0.030093720317895388,0.23475765009048485,0.08020575561523437,0.9235632904052734,10.333374365234375
1651171063.4640436,-0.001331580545039619,-0.027297401173312193,0.23276027927292542,0.5925649108886718,0.007781155395507812,9.788693487548828
1651171063.4740446,0.008522115488253561,-0.00625842856168621,0.23023027623735012,0.46806642456054687,0.7050923889160156,9.85752678527832
1651171063.4840434,-0.0019973708175594286,0.010652644360316953,0.2324939631639175,-0.34715924072265625,0.06284779357910156,9.930549935913085
1651171063.4940448,0.005858954398174323,0.0006657902725198095,0.23156185678238977,-0.8313865264892578,1.0821791503906248,10.128670123291014
1651171063.504043,-0.01731054708551505,-0.02503371424674484,0.2324939631639175,-0.5566518859863281,-0.7080851409912109,9.76774422302246
1651171063.514045,0.009986854087797143,-0.041944787168748006,0.22916501180131843,0.3345896820068359,1.246780514526367,9.78031378173828
1651171063.5240428,-0.017044230976507122,-0.03129214280843105,0.23276027927292542,0.852934341430664,0.26276363220214843,9.913191973876952
1651171063.5340455,-0.0083889574337496,-0.0021305288720633903,0.22836606347429467,0.19931728820800781,0.5811924530029297,10.171765753173828
1651171063.5440426,-0.013182647395892227,0.0038615835806148956,0.22916501180131843,-0.6236895324707031,0.5225345123291015,9.840168823242188
1651171063.5540457,-0.0195742340120824,-0.01611212459497939,0.22743395709276695,-0.8499415893554687,0.06643909606933593,10.001777435302733
1651171063.5640423,-0.010785802414820914,-0.04234426133225989,0.22503711211169564,-0.23223756103515625,0.8044517578125,9.665392102050781
1651171063.574046,-0.02423476591972107,-0.05020058654799364,0.22636869265673526,0.5877765075683593,0.086191259765625,9.952696301269532
1651171063.5840423,-0.017576863194522972,-0.033156355571486516,0.22716764098375902,0.6667851623535156,0.39983167724609375,10.110713610839843
1651171063.594046,-0.02170476288414579,-0.010652644360316953,0.22503711211169564,0.07721300354003906,0.3345896820068359,9.916783276367187
1651171063.604042,-0.021438446775137867,-0.010253170196805066,0.22357237351215203,-0.5147533569335937,0.47105917663574215,9.826402163696288
1651171063.6140463,-0.02583266257376861,-0.027031085064304263,0.22317289934864018,-0.7260416534423828,0.1771709228515625,10.0748005859375
1651171063.6240418,-0.019174759848570515,-0.052863747638072875,0.22077605436756886,0.1322796417236328,0.690128628540039,9.850344180297851
1651171063.6340466,-0.03036003642690331,-0.05193164125654514,0.22184131880360056,0.7918821990966797,-0.0383072265625,10.155604891967773
1651171063.6440415,-0.024767398137736915,-0.026631610900792378,0.22144184464008865,0.5584475372314452,0.24061726684570311,9.980229620361328
1651171063.6540468,-0.02596582062827257,-0.011584750741844684,0.21931131576802526,-0.08020575561523437,0.6194996795654296,9.776123928833007
1651171063.6640413,-0.03874899386065292,-0.016644756812995237,0.22011026409504902,-0.7661445312499999,-0.09935936889648436,10.083180291748047
1651171063.674047,-0.02876213977285577,-0.046072686858370814,0.2191781577135213,-0.30885201416015623,0.412401235961914,9.841365924072266
1651171063.684041,-0.03688478109759745,-0.0587227020362472,0.22157500269459263,0.3950432739257812,0.06823474731445311,10.045471615600585
1651171063.6940475,-0.030892668644919165,-0.049002164057457984,0.2195776318770332,0.939125601196289,0.5021837982177734,9.980229620361328
1651171063.7040408,-0.04314320965928366,-0.022636869265673522,0.220243422149553,0.4171896392822265,-0.19393033447265623,10.035296258544921
1651171063.7140477,-0.0335558297349984,-0.013315805450396189,0.2185123674410015,-0.24001871643066405,0.5165490081787109,9.860519537353515
1651171063.7240405,-0.04340952576829158,-0.02436792397422503,0.21971078993153717,-0.6985083343505859,-0.044891281127929686,10.137049829101562
1651171063.734048,-0.03475425222553406,-0.05219795736555306,0.2177134191139777,-0.1274912384033203,0.3920505218505859,9.637260232543944
1651171063.7440403,-0.042077945223251964,-0.06072007285380662,0.21931131576802526,0.5901707092285156,-0.054468087768554684,10.290278735351562
1651171063.754048,-0.03542004249805387,-0.04727110934890648,0.21758026105947378,1.1079168182373047,0.1879448303222656,9.812036953735351
1651171063.76404,-0.037417413315613296,-0.01744370514001901,0.21797973522298564,0.41898529052734373,0.1975216369628906,10.108319409179687
1651171063.7740483,-0.03688478109759745,-0.009187905760773371,0.21691447078695394,-0.39743747558593745,0.15861585998535155,9.727641345214844
1651171063.7840397,-0.036618464988589526,-0.030093720317895388,0.21664815467794601,-0.6512228515624999,0.22864625854492185,10.035894808959961
1651171063.7940485,-0.0391484680241648,-0.055926382891664,0.21571604829641827,-0.0053869537353515625,-0.17058686828613281,9.740210903930663
1651171063.8040395,-0.031158984753927088,-0.06191849534434229,0.2149170999693945,0.7577648254394531,0.6380547424316406,10.035296258544921
1651171063.8140488,-0.04633900296737874,-0.04221110327775593,0.21678131273245,0.9139864837646484,-0.5099649536132812,9.93294413757324
1651171063.8240392,-0.030759510590415203,-0.02090581455712202,0.21704762884145792,0.24480711975097655,0.36391865234375,9.973047015380859
1651171063.8340492,-0.04394215798630743,-0.0195742340120824,0.2185123674410015,-0.38786066894531246,-0.27832594299316404,9.767145672607422
1651171063.8440392,-0.035952674716069714,-0.03954794218767669,0.21904499965901733,-0.4632780212402344,0.0,9.90840357055664
1651171063.854049,-0.03808320358813311,-0.060586914799302664,0.21864552549550548,0.2597708801269531,0.0143652099609375,9.84435867614746
1651171063.8640394,-0.03715109720660537,-0.06072007285380662,0.21904499965901733,0.8696937530517578,-0.05626373901367187,10.011952792358398
1651171063.8740485,-0.03528688444354991,-0.03888215191515688,0.21971078993153717,0.843956085205078,-0.0383072265625,9.879673150634765
1651171063.8840396,-0.03488741028003802,-0.019840550121090324,0.2187786835500094,0.13467384338378904,-0.05087678527832031,9.97903251953125
1651171063.8940482,-0.028495823663847848,-0.022237395102161637,0.21678131273245,-0.4064157318115234,0.1897404815673828,9.907206469726562
1651171063.90404,-0.03342267168049444,-0.044341632149819316,0.21824605133199357,-0.16998831787109375,-0.603338818359375,9.873089096069336
1651171063.9140482,-0.019307917903074477,-0.058190069818231355,0.2185123674410015,0.670975015258789,0.09576806640624999,9.841964474487304
1651171063.9240403,-0.025433188410256723,-0.04540689658585101,0.22064289631306488,0.9193734375,-0.29927520751953124,10.034697708129881
1651171063.934048,-0.017976337358034857,-0.02530003035575276,0.21891184160451338,0.623090982055664,0.08140285644531249,9.779715231323241
1651171063.9440405,-0.022636869265673522,-0.01384843766841204,0.21971078993153717,-0.07003039855957031,-0.6111199737548828,9.98561657409668
1651171063.9540474,-0.009587379924285258,-0.024634240083232953,0.22144184464008865,-0.297479556274414,0.33099837951660155,9.832986218261718
1651171063.9640408,-0.0195742340120824,-0.04420847409531535,0.2198439479860411,0.05027823486328125,-0.30406361083984373,9.893439810180663
1651171063.9740472,-0.010785802414820914,-0.05432848623761646,0.21891184160451338,0.9109937316894531,-0.08499415893554688,9.826402163696288
1651171063.984041,-0.014514227940931847,-0.03289003946247859,0.22264026713062432,1.0498574279785156,-0.4381389038085937,10.040084661865233
1651171063.994047,-0.004527373853134705,-0.008921589651765448,0.2223739510216164,0.575206948852539,0.2232593048095703,9.616909518432617
1651171064.0040412,-0.010120012142301104,0.001331580545039619,0.2233060574031441,-0.4387374542236328,-0.2962824554443359,10.168174450683592
1651171064.0140467,-0.007057376888709981,-0.02436792397422503,0.22570290238421542,-0.22026655273437498,-0.5542576843261718,9.526528405761718
1651171064.0240414,0.003062635253591124,-0.040879522732716306,0.22556974432971147,0.20530279235839843,0.002992752075195312,10.241796151733398
1651171064.0340466,0.004793689962142629,-0.04460794825882724,0.22277342518512827,1.254561669921875,0.21188684692382811,9.3715038482666
1651171064.0440416,-0.003062635253591124,-0.013315805450396189,0.22556974432971147,0.9433154541015625,-0.8391676818847655,10.498574279785156
1651171064.0540464,0.013981595722916,0.005459480234662438,0.22636869265673526,0.42437224426269526,0.09816226806640624,9.409212524414063
1651171064.0640419,0.011584750741844684,0.010253170196805066,0.2233060574031441,-0.5710170959472656,0.2699462371826172,10.259154113769531
1651171064.074046,0.0035952674716069714,-0.01691107292200316,0.22343921545764808,-0.21428104858398436,-0.6985083343505859,9.258377819824219
1651171064.084042,0.016511598758491276,-0.03448793611652613,0.22570290238421542,0.3597287994384765,-0.373495458984375,10.383652600097655
1651171064.0940456,0.02503371424674484,-0.03368898778950236,0.2222407929671124,1.2312182037353514,0.594959112548828,9.475053070068359
1651171064.1040423,0.009587379924285258,-0.0007989483270237714,0.22277342518512827,0.7589619262695312,-0.6500257507324219,10.43871923828125
1651171064.1140456,0.020639498448114094,0.01478054404993977,0.22490395405719166,0.31483751831054685,-0.6811503723144531,9.154230047607422
1651171064.1240427,0.034354778062022175,0.01597896654047543,0.2243713218391758,-0.6889315277099609,0.8637082489013671,10.592546694946288
1651171064.1340451,0.015046860158947694,-0.016378440703987314,0.22303974129413617,0.015562310791015624,-0.3764882110595703,9.196128576660156
1651171064.144043,0.02250371121116956,-0.026631610900792378,0.2243713218391758,0.699705435180664,-0.8206126190185546,10.359112033081054
1651171064.1540449,0.04074636467821234,-0.012916331286884304,0.22410500573016787,1.275510934448242,0.6290764862060546,9.525929855346678
1651171064.1640432,0.025566346464760685,0.01824265346704278,0.22170816074909658,0.5416881256103515,0.15442600708007811,10.365097537231446
1651171064.1740448,0.02024002428460221,0.025433188410256723,0.2222407929671124,-0.13407529296874998,-1.216254443359375,9.427767587280274
1651171064.1840434,0.046738477130890625,0.01265001517787638,0.22197447685810448,-0.6111199737548828,0.5787982513427734,10.143035333251953
1651171064.1940446,0.03368898778950236,-0.016378440703987314,0.22184131880360056,0.11073182678222655,0.43933600463867184,9.739612353515625
1651171064.2040436,0.022636869265673522,-0.021971078993153714,0.22250710907612034,1.0277110626220702,-1.2671312286376952,10.046668716430663
1651171064.2140446,0.049801112384481754,0.0005326322180158476,0.22290658323963225,1.227626901245117,0.3758896606445312,9.872490545654296
1651171064.2240438,0.04234426133225989,0.031158984753927088,0.2221076349126085,0.5572504364013672,0.8152256652832031,9.843760125732421
1651171064.234044,0.02530003035575276,0.040213732460196494,0.22077605436756886,-0.6069301208496093,-1.0983400115966797,9.996989031982421
1651171064.244044,0.05113269292952137,0.013182647395892227,0.22077605436756886,-0.680551821899414,0.0652419952392578,9.574412438964844
1651171064.2540438,0.04833637378493817,-0.01824265346704278,0.2195776318770332,0.20709844360351562,0.7140706451416016,10.11909331665039
1651171064.2640443,0.03448793611652613,-0.0195742340120824,0.21971078993153717,1.3569137908935547,-0.8349778289794921,9.740210903930663
1651171064.2740436,0.05113269292952137,0.0167779148674992,0.21864552549550548,1.1258733306884765,-0.1771709228515625,10.248978756713866
1651171064.2840445,0.05539375067364816,0.04460794825882724,0.22011026409504902,0.27892449340820313,0.776319888305664,9.609128363037108
1651171064.2940433,0.039414784133172724,0.04620584491287478,0.2191781577135213,-0.9283516937255859,-0.3848679168701172,10.225635290527343
1651171064.3040447,0.052464273474560986,0.007057376888709981,0.21584920635092225,-0.5183446594238281,-0.10235212097167969,9.289502441406249
1651171064.314043,0.0541953281831125,-0.01731054708551505,0.21678131273245,0.3363853332519531,0.44412440795898434,10.573393081665039
1651171064.3240452,0.04953479627547383,-0.012383699068868458,0.21531657413290642,1.5065513946533202,-0.028730419921875,9.460089309692382
1651171064.3340428,0.0531300637470808,0.027430559227816155,0.21371867747885887,0.8690952026367187,-0.1466448516845703,10.366294638061524
1651171064.3440454,0.05765743760021551,0.047803741566922325,0.21478394191489056,-0.02454056701660156,0.21727380065917967,9.437344393920897
1651171064.3540425,0.05233111542005703,0.039281626078668766,0.21651499662344204,-0.948702407836914,0.06404489440917968,10.264541067504883
1651171064.3640456,0.05486111845563231,0.0006657902725198095,0.2163818385689381,-0.3555389465332031,0.17657237243652343,9.507374792480467
1651171064.3740423,0.052064799311049105,-0.01824265346704278,0.21531657413290642,0.7068880401611328,0.05805939025878906,10.338761318969725
1651171064.3840458,0.05339637985608872,-0.00346210941710301,0.2162486805144341,1.5035586425781249,0.25258827514648435,9.766547122192382
1651171064.394042,0.05153216709303326,0.03874899386065292,0.21531657413290642,0.6350619903564453,0.12449848632812499,10.313622201538085
1651171064.404046,0.05060006071150552,0.04993427043898572,0.21425130969687473,-0.421978042602539,0.20649989318847656,9.501389288330078
1651171064.4140418,0.04793689962142629,0.028895297827359733,0.21571604829641827,-1.0534487304687499,-0.12509703674316405,10.108319409179687
1651171064.4240465,0.05339637985608872,-0.011318434632836761,0.21584920635092225,-0.06584054565429687,0.3094505645751953,9.779116680908203
1651171064.4340415,0.046738477130890625,-0.022104237047657675,0.21611552245993018,1.1109095703125,-0.032920272827148434,10.259154113769531
1651171064.4440467,0.052064799311049105,0.007057376888709981,0.21584920635092225,1.389834063720703,0.2741360900878906,9.943718045043944
1651171064.4540412,0.0503337446024976,0.045273738531347044,0.2162486805144341,0.32561142578124996,0.5087678527832031,9.896432562255859
1651171064.464047,0.04540689658585101,0.050466902657001565,0.21345236136985093,-0.9133879333496093,0.1610100616455078,10.031106405639648
1651171064.474041,0.04953479627547383,0.014647385995435809,0.21065604222526774,-0.9157821350097656,0.3327940307617187,9.752780462646484
1651171064.4840472,0.04727110934890648,-0.021038972611625982,0.21012341000725188,0.13467384338378904,0.4010287780761719,10.06881508178711
1651171064.4940407,0.04487426436783516,-0.022237395102161637,0.21012341000725188,1.3144167114257812,0.14544775085449219,9.833584768676758
1651171064.5040474,0.04633900296737874,0.013715279613908078,0.2094576197347321,1.1516109985351561,0.2501940734863281,10.289680184936524
1651171064.5140407,0.04340952576829158,0.045140580476843085,0.21172130666129943,0.06045359191894531,0.2711433380126953,9.741408004760741
1651171064.5240476,0.04141215495073215,0.03954794218767669,0.2121207808248113,-1.0839748016357422,0.5764040496826172,10.03050785522461
1651171064.5340402,0.03608583277057368,-0.0005326322180158476,0.2118544647158034,-0.7433996154785156,0.239420166015625,9.682151513671874
1651171064.5440478,0.03795004553362914,-0.031558458917438977,0.21078920027977172,0.34177228698730466,0.6177040283203125,10.141239682006836
1651171064.55404,0.02956108809987954,-0.02356897564720126,0.21105551638877962,1.3910311645507811,0.34177228698730466,9.86291373901367
1651171064.564048,0.028362665609343887,0.015313176267955617,0.20905814557122018,0.9085995300292968,0.32620997619628905,10.161590396118163
1651171064.5740397,0.027297401173312193,0.03834951969714103,0.20892498751671623,-0.28969840087890625,0.5195417602539062,9.766547122192382
1651171064.5840483,0.01810949541253882,0.021971078993153714,0.2121207808248113,-1.064821188354492,-0.031124621582031248,10.06223102722168
1651171064.5940394,0.026631610900792378,-0.01731054708551505,0.21198762277030733,-0.4638765716552734,0.6410474945068358,9.747393508911133
1651171064.6040485,0.018375811521546742,-0.03795004553362914,0.21265341304282717,0.6590040069580078,0.41359833679199215,10.0748005859375
1651171064.614039,0.014647385995435809,-0.021837920938649752,0.21118867444328357,1.350329736328125,0.28431144714355466,9.949104998779296
1651171064.624049,0.015845808485971467,0.015446334322459582,0.20825919724419642,0.6189011291503906,0.4848258361816406,10.17715270690918
1651171064.634039,0.014647385995435809,0.027963191445832,0.20572919420862115,-0.5476736297607422,0.7715314849853515,9.753977563476562
1651171064.644049,0.005326322180158476,0.00346210941710301,0.20572919420862115,-0.9624690673828125,0.11671733093261719,9.903016616821288
1651171064.6540391,0.008788431597261486,-0.034088461953014244,0.20612866837213303,-0.0987608184814453,0.08978256225585937,9.900622415161132
1651171064.6640487,0.012383699068868458,-0.044341632149819316,0.20652814253564494,1.0205284576416016,0.8918401184082031,10.005368737792969
1651171064.6740396,-0.003994741635118857,-0.017710021249026934,0.20905814557122018,1.2024877838134764,-0.13946224670410157,9.950302099609374
1651171064.6840484,0.005725796343670361,0.013715279613908078,0.20825919724419642,0.3232172241210937,0.5297171173095703,9.858125335693359
1651171064.6940398,-0.0027963191445832,0.015313176267955617,0.20852551335320435,-0.7930792999267577,0.6817489227294922,9.938929641723632
1651171064.7040482,-0.00905474770626941,-0.018642127630554665,0.20572919420862115,-0.7972691528320313,0.479438882446289,9.700706576538085
1651171064.71404,-0.013182647395892227,-0.05166532514753722,0.20825919724419642,0.14544775085449219,0.07362170104980469,9.95329485168457
1651171064.724048,-0.00905474770626941,-0.05632585705517589,0.20639498448114096,1.1725602630615233,0.7829039428710937,9.880870251464843
1651171064.7340403,-0.021305288720633905,-0.024767398137736915,0.20892498751671623,1.1061211669921875,0.14903905334472656,10.08737014465332
1651171064.7440476,-0.021038972611625982,0.0006657902725198095,0.21158814860679548,0.15263035583496093,-0.03232172241210937,9.704297879028319
1651171064.7540405,-0.0167779148674992,-0.0033289513625990473,0.2139849935878668,-0.74699091796875,0.7044938385009765,9.913191973876952
1651171064.7640476,-0.02783003339132804,-0.03874899386065292,0.21425130969687473,-0.527322915649414,0.30885201416015623,9.765350021362304
1651171064.7740407,-0.026365294791784455,-0.06524744670694134,0.21371867747885887,0.5668272430419922,0.2292448089599609,9.91438907470703
1651171064.7840471,-0.026365294791784455,-0.05632585705517589,0.2139849935878668,1.22583125,0.42018239135742186,9.892242709350585
1651171064.794041,-0.027963191445832,-0.02783003339132804,0.20999025195274792,0.9534908111572266,0.6069301208496093,9.884461553955077
1651171064.8040469,-0.036618464988589526,-0.008122641324741676,0.2103897261162598,-0.24480711975097655,-0.11731588134765625,9.8449572265625
1651171064.8140414,-0.03142530086293501,-0.0268979270098003,0.20999025195274792,-0.6554127044677734,0.2154781494140625,9.638457333374022
1651171064.8240466,-0.03289003946247859,-0.06111954701731851,0.21118867444328357,-0.19812018737792966,0.33758243408203126,9.913191973876952
1651171064.8340414,-0.03715109720660537,-0.07922904242985733,0.21278657109733112,0.9044096771240234,0.2316390106201172,9.82580361328125
1651171064.8440464,-0.03901530996966084,-0.060187440635790776,0.2149170999693945,1.3760674041748047,0.03890577697753906,9.956886154174803
1651171064.8540416,-0.03528688444354991,-0.02956108809987954,0.21358551942435489,0.7404068634033203,0.48243163452148435,9.846752877807617
1651171064.8640463,-0.041944787168748006,-0.01890844373956259,0.21132183249778755,-0.3705027069091797,0.3591302490234375,9.815628256225585
1651171064.874042,-0.04540689658585101,-0.04314320965928366,0.2114549905522915,-0.6482300994873047,-0.13766659545898435,9.625887774658203
1651171064.8840458,-0.039414784133172724,-0.07789746188481772,0.21198762277030733,0.12509703674316405,0.1753752716064453,9.905410818481444
1651171064.8940423,-0.04221110327775593,-0.08775115791811089,0.2149170999693945,1.2515689178466796,0.24361001892089842,9.868300692749022
1651171064.9040456,-0.04687163518539458,-0.06311691783487795,0.21811289327748962,1.4149731811523436,-0.20051438903808594,9.944316595458984
1651171064.9140425,-0.044474790204323274,-0.03195793308095086,0.21824605133199357,0.7230489013671875,0.029328970336914062,9.743203656005859
1651171064.9240453,-0.04141215495073215,-0.025566346464760685,0.2195776318770332,-0.4381389038085937,0.5039794494628906,9.879074600219726
1651171064.9340427,-0.0503337446024976,-0.05552690872815212,0.2191781577135213,-0.46806642456054687,-0.16160861206054686,9.53131680908203
1651171064.944045,-0.04420847409531535,-0.08761799986360694,0.2177134191139777,0.35194764404296874,-0.08200140686035155,9.970652813720703
1651171064.954043,-0.04074636467821234,-0.09254484788025352,0.21651499662344204,1.4149731811523436,0.32920272827148434,9.8449572265625
1651171064.9640448,-0.04807005767593025,-0.06418218227090965,0.21731394495046585,1.4784195251464842,-0.2657563842773437,9.974842666625976
1651171064.9740431,-0.04407531604081139,-0.034354778062022175,0.2178465771684817,0.6602011077880859,-0.28371289672851563,9.735422500610351
1651171064.9840446,-0.03781688747912518,-0.030493194481407273,0.2195776318770332,-0.3184288208007812,0.23044190979003906,9.827599264526366
1651171064.9940434,-0.042876893550275734,-0.05992112452678285,0.2177134191139777,-0.3597287994384765,-0.06404489440917968,9.745597857666015
1651171065.0040443,-0.04034689051470046,-0.08828379013612674,0.21731394495046585,0.6428431457519531,-0.3938461730957031,9.82520506286621
1651171065.0140438,-0.0318247750264469,-0.08575378710055147,0.21544973218741034,1.495178936767578,0.19512743530273435,9.965265859985351
1651171065.024044,-0.03781688747912518,-0.057790595654719466,0.21651499662344204,1.4299369415283203,-0.07601590270996093,9.851541281127929
1651171065.0340438,-0.03688478109759745,-0.031691616971942935,0.21611552245993018,0.5279214660644531,-0.39145197143554683,9.859322436523437
1651171065.0440438,-0.031558458917438977,-0.0335558297349984,0.21611552245993018,-0.1849520782470703,-0.03890577697753906,9.749189160156249
1651171065.054044,-0.03195793308095086,-0.06111954701731851,0.2163818385689381,-0.047884033203124995,-0.058657940673828124,9.765350021362304
1651171065.0640438,-0.03368898778950236,-0.08309062601047223,0.2162486805144341,0.8661024505615234,-0.3860650177001953,9.909600671386718
1651171065.0740445,-0.02596582062827257,-0.07496798468573054,0.2178465771684817,1.5729904907226562,-0.11013327636718749,9.920374578857421
1651171065.0840433,-0.02583266257376861,-0.04554005464035497,0.21864552549550548,1.351526837158203,0.01975216369628906,9.919776028442381
1651171065.0940447,-0.027031085064304263,-0.023835291756209184,0.2174471030049698,0.4997895965576172,-0.21906945190429686,9.830592016601562
1651171065.104043,-0.024634240083232953,-0.029028455881863695,0.21691447078695394,-0.1083376251220703,-0.3076549133300781,9.770736975097655
1651171065.114045,-0.0167779148674992,-0.05459480234662439,0.21531657413290642,0.1274912384033203,0.08319850769042968,9.886855755615233
1651171065.1240427,-0.019973708175594285,-0.0727042977591632,0.21478394191489056,1.0863690032958984,-0.37409400939941406,9.837176071166992
1651171065.1340451,-0.01611212459497939,-0.059388492308767006,0.21411815164237072,1.5574281799316405,-0.4465186096191406,10.105326657104492
1651171065.1440425,-0.008122641324741676,-0.03036003642690331,0.2150502580238985,1.2862848419189452,-0.03591302490234375,9.782707983398437
