time,gx,gy,gz,ax,ay,az
0.0,-0.0218379209386497,-0.0334226716804944,-0.0238352917562091,0.2376245147705078,-0.1663970153808593,9.979631069946288
0.01000666618347168,-0.0186421276305546,-0.0358195166615657,-0.0241016078652171,0.6057330200195312,0.0808043060302734,9.8311905670166
0.11000800132751465,-0.0170442309765071,-0.0210389726116259,-0.0346210941710301,0.3393780853271484,-0.0945709655761718,9.803058697509766
0.13000822067260742,-0.0163784407039873,-0.0250337142467448,-0.0338221458440063,0.6063315704345703,-0.2992752075195312,9.7545761138916
0.139998197555542,-0.0106526443603169,-0.0189084437395625,-0.0340884619530142,0.5662286926269531,0.1388636962890625,10.03469770812988
0.1500082015991211,-0.0158458084859714,-0.0146473859954358,-0.0352868844435499,0.4866214874267577,-0.287902749633789,9.8449572265625
0.15999841690063477,-0.0105194863058129,-0.0135821215594041,-0.0374174133156132,0.3363853332519531,-0.0646434448242187,9.93952819213867
0.17000818252563477,-0.0107858024148209,-0.0158458084859714,-0.0375505713701172,0.3531447448730468,-0.153827456665039,9.77492682800293
0.17999887466430664,-0.0089215896517654,-0.0198405501210903,-0.0395479421876766,0.527322915649414,-0.0790086547851562,9.962273107910155
0.19000768661499023,-0.0133158054503961,-0.0163784407039873,-0.0374174133156132,0.6440402465820312,-0.5398924743652344,9.877877499389648
0.19999909400939941,-0.0043942157986307,-0.0083889574337496,-0.0371510972066053,0.6069301208496093,0.1215057342529296,9.916783276367187
0.2100074291229248,-0.0105194863058129,-0.0035952674716069,-0.0371510972066053,0.4010287780761719,-0.2753331909179687,9.900622415161132
0.2199993133544922,-0.0062584285616862,-0.0054594802346624,-0.0374174133156132,0.2256535064697265,-0.1963245361328124,9.859322436523437
0.23000717163085938,-0.0053263221801584,-0.0111852765783328,-0.0384826777516449,0.3471592407226562,-0.1029506713867187,9.867702142333984
0.23999977111816406,-0.0053263221801584,-0.0154463343224595,-0.0394147841331727,0.5853823059082031,-0.0418985290527343,9.90241806640625
0.25000691413879395,-0.0063915866161901,-0.0090547477062694,-0.0390153099696608,0.7338228088378905,-0.3381809844970703,9.87727894897461
0.25999975204467773,-0.003195793308095,0.0003994741635118,-0.0399474163511885,0.5746083984375,-0.268749136352539,9.85692823486328
0.2700066566467285,-0.0010652644360316,0.0050600060711505,-0.038216361642637,0.3393780853271484,0.0029927520751953,9.891045608520509
0.2799999713897705,-0.0054594802346624,0.0025300030355752,-0.0379500455336291,0.2142810485839843,-0.526125814819336,9.868300692749022
0.2900063991546631,0.0047936899621426,-0.0061252705071822,-0.0384826777516449,0.3812766143798828,0.0682347473144531,9.824007962036132
0.3000001907348633,0.0001331580545039,-0.0075900091067258,-0.0395479421876766,0.5363011718749999,-0.2053027923583984,9.993996279907224
0.31000614166259766,0.0039947416351188,-0.0063915866161901,-0.0406132066237083,0.8116343627929687,-0.1221042846679687,9.790489138793944
0.32000041007995605,0.0042610577441267,0.0075900091067258,-0.0412789968962281,0.5626373901367188,-0.2932897033691406,10.05564697265625
0.3300058841705322,0.0063915866161901,0.0093210638152773,-0.0415453130052361,0.3693056060791015,-0.0377086761474609,9.755773214721678
0.34000062942504883,0.0029294771990871,0.0091879057607733,-0.0406132066237083,0.1957259857177734,-0.4004302276611328,10.06223102722168
0.3500056266784668,0.0091879057607733,-0.0003994741635118,-0.0391484680241648,0.3938461730957031,-0.0825999572753906,9.636661682128906
0.3600010871887207,0.006657902725198,-0.0013315805450396,-0.0387489938606529,0.4824316345214843,-0.1262941375732421,10.044873065185548
0.37000536918640137,0.006924218834206,0.0003994741635118,-0.0386158358061489,0.7092822418212891,-0.201711489868164,9.700706576538083
0.3800013065338135,0.0105194863058129,0.0101200121423011,-0.0394147841331727,0.4967968444824218,0.0814028564453124,10.128670123291014
0.39000511169433594,0.0058589543981743,0.0130494893413882,-0.0399474163511885,0.3244143249511718,-0.1807622253417968,9.738415252685549
0.40000176429748535,0.0105194863058129,0.0093210638152773,-0.0403468905147004,0.1771709228515625,-0.0748188018798828,9.95389340209961
0.4100048542022705,0.006791060779702,0.0013315805450396,-0.0410126807872202,0.3507505432128906,-0.4279635467529296,9.87608184814453
0.420001745223999,0.0154463343224595,0.0,-0.0402137324601964,0.5686228942871093,0.21068974609375,9.926958633422853
0.430004358291626,0.0051931641256545,0.006791060779702,-0.0398142582966846,0.5961562133789062,-0.507570751953125,9.867702142333984
0.4400019645690918,0.0169110729220031,0.0134489635049001,-0.0388821519151568,0.4231751434326171,0.1622071624755859,9.95329485168457
0.45000433921813965,0.0098536960332931,0.0149137021044437,-0.0394147841331727,0.1628057128906249,-0.1771709228515625,9.964068759155271
0.46000218391418457,0.013715279613908,0.0071905349432139,-0.041811629114244,0.1957259857177734,-0.0670376464843749,9.85632968444824
0.4700040817260742,0.0121173829598605,0.0017310547085515,-0.0426105774412678,0.3980360260009765,-0.125097036743164,9.93354268798828
0.48000264167785645,0.013981595722916,0.0013315805450396,-0.0432763677137876,0.6171054779052734,-0.1628057128906249,9.94072529296875
0.4900038242340088,0.0134489635049001,0.0105194863058129,-0.0423442613322598,0.5961562133789062,-0.0987608184814453,9.926360083007811
0.5000028610229492,0.0125168571233724,0.017177389031011,-0.0423442613322598,0.2412158172607421,-0.2932897033691406,9.883264453125
0.5100035667419434,0.0175768631945229,0.0142479118319239,-0.04167847105974,0.0496796844482421,0.1867477294921875,9.906009368896484
0.520003080368042,0.0093210638152773,0.0035952674716069,-0.0403468905147004,0.1412578979492187,-0.3752911102294922,9.913790524291992
0.5300033092498779,0.0167779148674992,-0.0021305288720633,-0.0427437354957717,0.4441244079589843,0.1657984649658203,9.928754284667969
0.5400032997131348,0.0095873799242852,0.0010652644360316,-0.0430100516047797,0.5823895538330078,-0.1837549774169921,9.943119494628906
0.5500030517578125,0.0135821215594041,0.0093210638152773,-0.0447411063133312,0.536899722290039,0.0628477935791015,9.92755718383789
0.5600035190582275,0.0081226413247416,0.0153131762679556,-0.0431432096592836,0.1681926666259765,-0.3716998077392578,10.046668716430665
0.5700027942657471,0.0153131762679556,0.0087884315972614,-0.0446079482588272,0.0604535919189453,0.2190694519042968,9.782707983398437
0.5800037384033203,0.0090547477062694,0.0001331580545039,-0.0436758418772995,0.1753752716064453,-0.2094926452636718,9.977236868286132
0.5900025367736816,0.013981595722916,-0.006657902725198,-0.0447411063133312,0.4812345336914062,-0.0736217010498046,9.922768780517575
0.6000039577484131,0.013715279613908,-0.0021305288720633,-0.0447411063133312,0.6458358978271485,0.0879869110107421,10.02392380065918
0.6100022792816162,0.0114515926873407,0.006924218834206,-0.0468716351853945,0.4459200592041015,-0.0652419952392578,9.903016616821288
0.6200041770935059,0.0123836990688684,0.0097205379787892,-0.0490021640574579,0.1657984649658203,0.0658405456542968,9.935936889648437
0.6300020217895508,0.0105194863058129,0.0045273738531347,-0.0495347962754738,-0.0047884033203125,-0.2747346405029297,9.849745629882811
0.6400046348571777,0.0161121245949793,-0.0059921124526782,-0.0499342704389857,0.2525882751464843,0.2849099975585937,9.929951385498049
0.6500020027160645,0.0059921124526782,-0.0082557993792456,-0.0498011123844817,0.4764461303710937,-0.3956418243408203,9.974244116210937
0.6600048542022705,0.0154463343224595,-0.0029294771990871,-0.0490021640574579,0.4973953948974609,0.1628057128906249,10.01674119567871
0.670001745223999,0.0090547477062694,0.0038615835806148,-0.0495347962754738,0.335786782836914,-0.1418564483642578,9.92037457885742
0.6800050735473633,0.0107858024148209,0.0027963191445832,-0.0500674284934896,0.1382651458740234,0.1460463012695312,9.85812533569336
0.6900012493133545,0.0073236929977179,-0.003462109417103,-0.0513990090385292,0.0993593688964843,-0.1490390533447265,9.930549935913085
0.700005292892456,0.0086552735427575,-0.0119842249053565,-0.0525974315290649,0.3651157531738281,0.0658405456542968,9.986215124511718
0.71000075340271,0.006657902725198,-0.0110521185238288,-0.0519316412565451,0.5333084197998047,-0.0526724365234375,9.984419473266602
0.7200055122375488,0.0063915866161901,-0.003462109417103,-0.0535295379105926,0.4483142608642578,-0.1651999145507812,9.899425314331054
0.7300009727478027,0.0083889574337496,0.0017310547085515,-0.0529969056925768,0.211288296508789,0.1478419525146484,9.913191973876952
0.7400057315826416,0.0046605319076386,-0.0014647385995435,-0.0525974315290649,0.0299275207519531,-0.2238578552246093,9.94012674255371
0.7500007152557373,0.010386328251309,-0.0125168571233724,-0.0545948023466243,0.2214636535644531,0.1915361328124999,9.911396322631836
0.7600061893463135,0.003328951362599,-0.0159789665404754,-0.0553937506736481,0.4297591979980468,-0.1975216369628906,9.964068759155271
0.7700004577636719,0.0085221154882535,-0.0127831732323803,-0.0572579634367036,0.6530185028076172,0.2759317413330078,9.93414123840332
0.7800061702728271,0.0006657902725198,-0.0026631610900792,-0.0569916473276956,0.4435258575439453,-0.3483563415527343,10.017938296508788
0.7899999618530273,0.0079894832702377,0.0011984224905356,-0.0581900698182313,0.1879448303222656,0.2436100189208984,9.913790524291992
0.8000063896179199,0.0010652644360316,-0.0047936899621426,-0.0572579634367036,0.0155623107910156,-0.1915361328124999,9.91438907470703
0.8099997043609619,0.0035952674716069,-0.0158458084859714,-0.0587227020362472,0.2430114685058593,-0.0089782562255859,9.905410818481444
0.8200068473815918,0.0018642127630554,-0.0211721306661299,-0.0577905956547194,0.5446808776855468,0.0317231719970703,9.961076007080075
0.8299996852874756,0.0006657902725198,-0.0135821215594041,-0.0600542825812868,0.6410474945068358,-0.0299275207519531,9.968258612060549
0.8400070667266846,0.0019973708175594,-0.003328951362599,-0.0608532309083105,0.4776432312011718,0.1370680450439453,9.87009634399414
0.849999189376831,-0.0038615835806148,0.0006657902725198,-0.0607200728538066,0.1047463226318359,-0.240018716430664,10.019135397338866
0.8600072860717773,0.0014647385995435,-0.0078563252157337,-0.0612527050718224,0.0915782135009765,0.2956839050292968,9.828197814941406
0.8699991703033447,-0.0061252705071822,-0.0157126504314675,-0.0611195470173185,0.2274491577148437,-0.3591302490234375,9.95928035583496
0.8800075054168701,0.0025300030355752,-0.0193079179030744,-0.0624511275623581,0.623090982055664,0.2430114685058593,9.829993466186522
0.8899986743927002,-0.0063915866161901,-0.0121173829598605,-0.0616521792353343,0.5770026000976562,-0.2214636535644531,10.06881508178711
0.9000077247619629,0.0007989483270237,-0.0049268480166465,-0.0631169178348779,0.4387374542236328,0.1843535278320312,9.849147079467771
0.9099984169006348,-0.0057257963436703,-0.0018642127630554,-0.0640490242164056,0.0969651672363281,-0.1915361328124999,10.047267266845704
0.9200081825256348,-0.0007989483270237,-0.0105194863058129,-0.0660463950339651,0.1580173095703125,0.1424549987792968,9.813832604980467
0.9299983978271484,-0.0063915866161901,-0.0169110729220031,-0.0648479725434294,0.3950432739257812,-0.1221042846679687,9.979631069946288
0.9400081634521484,-0.0046605319076386,-0.017310547085515,-0.0656469208704532,0.63206923828125,-0.0011971008300781,9.822212310791016
0.9499983787536621,-0.0047936899621426,-0.0082557993792456,-0.066312711142973,0.5207388610839844,0.1244984863281249,9.923965881347655
0.960007905960083,-0.0085221154882535,-0.0043942157986307,-0.066179553088469,0.230441909790039,-0.1897404815673828,9.89583401184082
0.9699983596801758,-0.0050600060711505,-0.0082557993792456,-0.0681769239060284,0.1526303558349609,0.2364274139404296,9.949104998779296
0.9800076484680176,-0.0113184346328367,-0.0162452826494833,-0.0681769239060284,0.2430114685058593,-0.1149216796875,9.8449572265625
0.9899988174438477,-0.006924218834206,-0.020772656502618,-0.069774820560076,0.575206948852539,0.201711489868164,9.85094273071289
1.0000073909759521,-0.0151800182134516,-0.0142479118319239,-0.069641662505572,0.5770026000976562,-0.3573345977783203,10.001178884887697
1.0099990367889404,-0.0061252705071822,-0.0087884315972614,-0.0701742947235879,0.4554968658447265,0.4016273284912109,9.809044201660155
1.0200073719024658,-0.0179763373580348,-0.0062584285616862,-0.0688427141785483,0.0909796630859375,-0.2885013000488281,9.952696301269532
1.0299992561340332,-0.0087884315972614,-0.0158458084859714,-0.0712395591596196,0.1849520782470703,0.1705868682861328,9.813234054565427
1.0400068759918213,-0.0158458084859714,-0.0218379209386497,-0.0707069269416037,0.3573345977783203,-0.115520230102539,10.022726699829102
1.049999475479126,-0.0106526443603169,-0.0249005561922408,-0.0727042977591632,0.6751648681640625,0.2023100402832031,9.841964474487304
1.0600063800811768,-0.0162452826494833,-0.0143810698864278,-0.0735032460861869,0.5716156463623047,-0.201112939453125,9.97903251953125
1.070000171661377,-0.0126500151778763,-0.0079894832702377,-0.073236929977179,0.3154360687255859,-0.0059855041503906,9.810241302490232
1.0800063610076904,-0.0135821215594041,-0.0087884315972614,-0.0729706138681711,0.0365115753173828,0.1448492004394531,9.9215716796875
1.0900001525878906,-0.0187752856850586,-0.020639498448114,-0.0724379816501552,0.1735796203613281,-0.1795651245117187,9.74799205932617
1.100006103515625,-0.0182426534670427,-0.027696875336824,-0.0721716655411473,0.469263525390625,-0.2932897033691406,10.132859976196288
1.1100003719329834,-0.0114515926873407,-0.0239684498107131,-0.0739027202496988,0.699705435180664,0.5392939239501953,10.043077413940429
1.1200058460235596,-0.0215716048296418,-0.0119842249053565,-0.0748348266312265,0.5799953521728515,0.0023942016601562,9.95987890625
1.1300005912780762,-0.0249005561922408,-0.0055926382891664,-0.0741690363587067,0.2364274139404296,-0.6302735870361328,9.58817909851074
1.1400055885314941,-0.0114515926873407,-0.0105194863058129,-0.0753674588492424,0.0161608612060546,0.6458358978271485,10.043675964355469
1.150000810623169,-0.0267647689552963,-0.020905814557122,-0.0739027202496988,0.1681926666259765,-0.2448071197509765,9.731831198120116
1.1600053310394287,-0.0237021337017052,-0.027830033391328,-0.0743021944132107,0.6105214233398437,-0.4405331054687499,9.79348189086914
1.1700012683868408,-0.017310547085515,-0.0183758115215467,-0.0727042977591632,0.6200982299804687,0.1035492218017578,10.251971508789062
1.1800053119659424,-0.0165115987584912,-0.0090547477062694,-0.0736364041406909,0.6009446166992187,0.5776011505126952,9.631873278808593
1.1900012493133545,-0.0307595105904152,-0.0030626352535911,-0.0736364041406909,0.1011550201416015,-0.8577227447509765,10.065822329711914
1.200005054473877,-0.0119842249053565,-0.0107858024148209,-0.0736364041406909,0.0556651885986328,0.4052186309814453,9.730035546875
1.2100017070770264,-0.0218379209386497,-0.0213052887206339,-0.0741690363587067,0.1831564270019531,0.0754173522949218,10.039486111450197
1.2200047969818115,-0.0259658206282725,-0.0263652947917844,-0.0747016685767226,0.6607996582031249,-0.4141968872070312,9.656413845825195
1.2300021648406982,-0.020905814557122,-0.0153131762679556,-0.0727042977591632,0.6452373474121094,-0.2914940521240234,10.127473022460936
1.240004539489746,-0.0159789665404754,-0.0063915866161901,-0.0728374558136671,0.507570751953125,0.3908534210205078,9.688137017822266
1.250002145767212,-0.0287621397728557,-0.0019973708175594,-0.0708400849961077,0.0592564910888671,-0.441131655883789,10.136451278686522
1.2600042819976807,-0.0213052887206339,-0.0113184346328367,-0.0705737688870998,0.1029506713867187,-0.2998737579345703,9.679757312011718
1.2700023651123047,-0.0185089695760507,-0.0193079179030744,-0.0703074527780918,0.239420166015625,0.3992331268310546,10.043077413940429
1.2800040245056152,-0.027830033391328,-0.0226368692656735,-0.0704406108325958,0.6721721160888672,-0.3256114257812499,9.718663088989258
1.2900025844573975,-0.0230363434291854,-0.0113184346328367,-0.0705737688870998,0.5345055206298828,-0.2861070983886719,10.175955606079102
1.3000037670135498,-0.0182426534670427,-0.0041278996896228,-0.0708400849961077,0.4345476013183593,0.0897825622558593,9.660603698730467
1.3100028038024902,-0.0234358175926972,-0.003195793308095,-0.0693753463965641,0.0257376678466796,-0.1592144104003906,10.147225186157224
1.3200035095214844,-0.0227700273201774,-0.0125168571233724,-0.0703074527780918,0.1861491790771484,-0.4465186096191406,9.630676177978517
1.330003023147583,-0.0186421276305546,-0.017443705140019,-0.0685763980695403,0.3555389465332031,-0.1047463226318359,10.171167202758788
1.340003252029419,-0.0191747598485705,-0.0163784407039873,-0.0676442916880126,0.6829460235595702,0.125097036743164,9.685742816162108
1.3500034809112549,-0.0251668723012488,-0.0047936899621426,-0.0671116594699968,0.4369418029785156,-0.4704606262207031,10.040683212280271
1.3600027561187744,-0.0169110729220031,-0.003328951362599,-0.0669785014154928,0.2082955444335937,-0.0855927093505859,9.686341366577148
1.3700037002563477,-0.0194410759575784,-0.0058589543981743,-0.0665790272519809,0.0263362182617187,-0.0119710083007812,10.058639724731444
1.3800029754638672,-0.0215716048296418,-0.0166447568129952,-0.0677774497425166,0.2136824981689453,-0.2885013000488281,9.727042794799804
1.3900039196014404,-0.0194410759575784,-0.020639498448114,-0.0671116594699968,0.4866214874267577,-0.278325942993164,9.999981784057615
1.4000024795532227,-0.017443705140019,-0.013715279613908,-0.0659132369794611,0.6482300994873047,-0.2388216156005859,9.90122096557617
1.4100041389465332,-0.0177100212490269,-0.003328951362599,-0.0655137628159492,0.4746504791259765,-0.1322796417236328,9.911396322631836
1.4200022220611572,-0.0202400242846022,0.0001331580545039,-0.0656469208704532,0.0975637176513671,-0.5123591552734374,9.864709390258788
1.430004358291626,-0.0118510668508526,-0.0077231671612297,-0.0653806047614452,0.0167594116210937,0.1316810913085937,9.874884747314452
1.4400019645690918,-0.0191747598485705,-0.017443705140019,-0.0655137628159492,0.2035071411132812,-0.3220201232910156,9.93952819213867
1.4500045776367188,-0.0115847507418446,-0.0221042370476576,-0.0676442916880126,0.6123170745849609,-0.1286883392333984,9.873089096069336
1.4600017070770264,-0.0153131762679556,-0.013715279613908,-0.0679106077970205,0.5895721588134766,-0.4273649963378906,10.041281762695313
1.4700047969818115,-0.0079894832702377,-0.0046605319076386,-0.0684432400150364,0.4722562774658203,-0.0820014068603515,9.931148486328125
1.480001449584961,-0.0131826473958922,0.0,-0.0667121853064849,0.1304839904785156,-0.5776011505126952,9.951499200439452
1.4900047779083252,-0.0050600060711505,-0.0053263221801584,-0.0645816564344215,0.0442927307128906,-0.1891419311523437,9.727641345214844
1.5000011920928955,-0.0065247446706941,-0.0155794923769635,-0.0649811305979334,0.240018716430664,-0.1562216583251953,9.986215124511718
1.510005235671997,-0.006791060779702,-0.0185089695760507,-0.0648479725434294,0.5542576843261718,-0.3968389251708984,9.91498762512207
1.52000093460083,-0.0018642127630554,-0.0142479118319239,-0.0664458691974769,0.632667788696289,-0.1005564697265625,10.01075569152832
1.5300054550170898,-0.0049268480166465,-0.0027963191445832,-0.0673779755790047,0.3585316986083984,-0.354940396118164,9.932345587158204
1.5400006771087646,-0.0003994741635118,-0.0037284255261109,-0.0685763980695403,0.1568202087402343,-0.125097036743164,9.891644158935549
1.5500056743621826,-0.0058589543981743,-0.0085221154882535,-0.0665790272519809,0.0598550415039062,-0.7272387542724609,9.989806427001952
1.5600004196166992,0.006924218834206,-0.0191747598485705,-0.0673779755790047,0.3776853118896484,0.05746083984375,9.855132583618165
1.5700061321258545,-0.0021305288720633,-0.0150468601589476,-0.0671116594699968,0.5524620330810547,-0.5500678314208984,9.97783541870117
1.5800001621246338,0.0089215896517654,-0.0094542218697812,-0.0684432400150364,0.5416881256103515,-0.1095347259521484,9.86291373901367
1.5900063514709473,0.0047936899621426,-0.003462109417103,-0.0676442916880126,0.2639607330322265,-0.4040215301513671,10.075997686767575
1.5999999046325684,0.0130494893413882,-0.0054594802346624,-0.0707069269416037,0.1807622253417968,-0.0604535919189453,9.813832604980467
1.61000657081604,0.0098536960332931,-0.0117179087963486,-0.0711064011051156,0.2274491577148437,-0.3782838623046874,9.988010775756836
1.619999647140503,0.0118510668508526,-0.0165115987584912,-0.0727042977591632,0.4728548278808593,-0.4860229370117187,9.868899243164062
1.6300067901611328,0.0191747598485705,-0.0122505410143644,-0.0721716655411473,0.6177040283203125,-0.0718260498046875,9.943718045043944
1.6399993896484375,0.0135821215594041,-0.0029294771990871,-0.0716390333231315,0.4967968444824218,-0.6392518432617187,9.816226806640625
1.6500067710876465,0.0222373951021616,0.0015978966540475,-0.0721716655411473,0.1550245574951171,-0.0849941589355468,10.001777435302731
1.6599993705749512,0.0169110729220031,-0.0041278996896228,-0.0705737688870998,0.0448912811279296,-0.4686649749755859,9.941323843383788
1.6700074672698975,0.0235689756472012,-0.0151800182134516,-0.0727042977591632,0.2956839050292968,0.0748188018798828,9.912593423461914
1.6799988746643066,0.0163784407039873,-0.0165115987584912,-0.0741690363587067,0.5596446380615234,-0.6177040283203125,9.903016616821288
1.6900076866149902,0.027696875336824,-0.0114515926873407,-0.0747016685767226,0.7116764434814453,0.048482583618164,9.950900650024414
1.699998378753662,0.0186421276305546,0.0003994741635118,-0.0740358783042028,0.4746504791259765,-0.6105214233398437,9.982623822021484
1.710007905960083,0.0283626656093438,0.0038615835806148,-0.0749679846857305,0.1765723724365234,-0.1963245361328124,9.756970315551758
1.7199983596801758,0.0258326625737686,-0.0022636869265673,-0.0741690363587067,0.0023942016601562,-0.3573345977783203,9.890447058105469
1.7300081253051758,0.0284958236638478,-0.0151800182134516,-0.073103771922675,0.3363853332519531,-0.2525882751464843,9.873089096069336
1.7399981021881104,0.0308926686449191,-0.0161121245949793,-0.0743021944132107,0.623090982055664,-0.1227028350830078,9.99639048156738
1.7500078678131104,0.0303600364269033,-0.0081226413247416,-0.0748348266312265,0.6458358978271485,-0.3327940307617187,9.886855755615231
1.7599983215332031,0.0346210941710301,0.0011984224905356,-0.0773648296668018,0.4106055847167968,0.0538695373535156,9.979631069946288
1.770007610321045,0.0291616139363676,0.0035952674716069,-0.0777643038303137,0.0909796630859375,-0.6183025787353515,9.862315188598632
1.779998540878296,0.0406132066237083,-0.0047936899621426,-0.0781637779938256,0.1376665954589843,0.134673843383789,9.87069489440918
1.7900073528289795,0.0300937203178953,-0.0133158054503961,-0.0760332491217622,0.3591302490234375,-0.5590460876464843,9.93952819213867
1.7999987602233887,0.0384826777516449,-0.0131826473958922,-0.0762995652307701,0.6021417175292968,0.0496796844482421,9.935936889648437
1.8100073337554932,0.0320910911354548,-0.003462109417103,-0.0756337749582503,0.6177040283203125,-0.3776853118896484,9.903016616821288
1.8199992179870605,0.0387489938606529,0.0042610577441267,-0.0760332491217622,0.3058592620849609,-0.058059390258789,9.892841259765625
1.8300070762634277,0.0344879361165261,0.0030626352535911,-0.0778974618848177,0.086789810180664,-0.1083376251220703,9.888651406860353
1.8399994373321533,0.0362189908250776,-0.0045273738531347,-0.0784300941028335,0.2124853973388671,-0.2029085906982421,9.95389340209961
1.8500068187713623,0.0372842552611093,-0.0109189604693248,-0.076699039394282,0.4854243865966796,-0.1107318267822265,9.92037457885742
1.859999656677246,0.034887410280038,-0.0058589543981743,-0.0762995652307701,0.5632359405517577,-0.3387795349121094,9.913191973876952
1.8700065612792969,0.0407463646782123,0.0030626352535911,-0.0747016685767226,0.5093664031982421,0.1562216583251953,9.924564431762697
1.8799998760223389,0.0336889877895023,0.0075900091067258,-0.0737695621951949,0.1891419311523437,-0.4213794921875,9.95868180541992
1.8900063037872314,0.0428768935502757,0.003462109417103,-0.0739027202496988,0.1107318267822265,0.2507926239013672,9.86351228942871
1.9000003337860107,0.0344879361165261,-0.0026631610900792,-0.0744353524677147,0.2346317626953125,-0.1933317840576171,9.930549935913085
1.910006046295166,0.0394147841331727,-0.0043942157986307,-0.0747016685767226,0.5129577056884765,0.0275333190917968,9.91558617553711
1.9200005531311035,0.0363521488795816,0.0021305288720633,-0.0739027202496988,0.6081272216796875,-0.1113303771972656,9.97184991455078
1.9300057888031006,0.0380832035881331,0.0106526443603169,-0.0735032460861869,0.4459200592041015,-0.019752163696289,9.910797772216796
1.9400007724761963,0.034754252225534,0.0159789665404754,-0.0712395591596196,0.1209071838378906,-0.0610521423339843,9.931747036743165
1.9500057697296143,0.0338221458440063,0.0087884315972614,-0.0685763980695403,0.0700303985595703,-0.1238999359130859,9.88206735229492
1.96000075340271,0.0338221458440063,0.0010652644360316,-0.0664458691974769,0.2543839263916015,0.1107318267822265,9.973645565795898
1.9700055122375488,0.0295610880998795,0.0,-0.0675111336335086,0.5105635040283203,-0.0305260711669921,9.873089096069336
1.9800012111663818,0.0307595105904152,0.0074568510522218,-0.0677774497425166,0.5416881256103515,0.2047042419433593,9.924564431762697
1.9900047779083252,0.0246342400832329,0.0165115987584912,-0.0677774497425166,0.3303998291015624,-0.0945709655761718,9.867103591918944
2.0000014305114746,0.0271642431188082,0.0179763373580348,-0.0669785014154928,0.0790086547851562,0.2196680023193359,9.913191973876952
2.010004758834839,0.0214384467751378,0.0111852765783328,-0.0656469208704532,0.0945709655761718,-0.1304839904785156,9.835380419921874
2.0200018882751465,0.0251668723012488,0.0055926382891664,-0.0656469208704532,0.2801215942382812,0.0825999572753906,10.020332498168944
2.0300049781799316,0.0227700273201774,0.0061252705071822,-0.0640490242164056,0.5243301635742187,0.0831985076904296,9.92097312927246
2.0400021076202393,0.0221042370476576,0.0154463343224595,-0.0641821822709096,0.5009866973876953,0.1777694732666015,9.937133990478516
2.050004482269287,0.0210389726116259,0.0229031853746814,-0.06285060172587,0.277727392578125,0.0891840118408203,9.7821094329834
2.060002326965332,0.0194410759575784,0.0210389726116259,-0.0645816564344215,-0.0239420166015624,0.2442085693359375,9.929951385498049
2.0700042247772217,0.0169110729220031,0.0122505410143644,-0.0647148144889254,0.0472854827880859,0.1646013641357421,9.874884747314452
2.080002546310425,0.0145142279409318,0.006791060779702,-0.0649811305979334,0.3178302703857422,-0.0113724578857421,9.916184725952148
2.0900039672851562,0.0143810698864278,0.0090547477062694,-0.0639158661619017,0.4932055419921874,0.3124433166503906,9.890447058105469
2.1000027656555176,0.0071905349432139,0.0179763373580348,-0.0624511275623581,0.3818751647949218,0.0209492645263671,9.932345587158204
2.110003709793091,0.0075900091067258,0.020905814557122,-0.0609863889628145,0.1849520782470703,0.1580173095703125,9.89643256225586
2.1200029850006104,0.0043942157986307,0.0189084437395625,-0.0601874406357907,-0.0041898529052734,0.1711854187011718,9.89643256225586
2.1300032138824463,0.0019973708175594,0.0097205379787892,-0.0603205986902947,0.1089361755371093,0.2855085479736328,9.840767373657226
2.140003204345703,-0.0022636869265673,0.0043942157986307,-0.0600542825812868,0.3615244506835937,0.1454477508544921,9.918578927612304
2.150002956390381,-0.0037284255261109,0.0086552735427575,-0.0607200728538066,0.4243722442626952,0.2178723510742187,9.932345587158204
2.160003423690796,-0.0049268480166465,0.0162452826494833,-0.0617853372898383,0.2932897033691406,0.2597708801269531,9.827599264526366
2.1700029373168945,-0.0105194863058129,0.0159789665404754,-0.0620516533988462,0.0646434448242187,0.0269347686767578,9.892242709350583
2.1800036430358887,-0.0087884315972614,0.0109189604693248,-0.0611195470173185,-0.0017956512451171,0.2148795989990234,9.852738381958009
2.190002679824829,-0.0117179087963486,0.003195793308095,-0.0607200728538066,0.1274912384033203,0.1616086120605468,9.834183319091796
2.2000038623809814,-0.0122505410143644,0.0018642127630554,-0.0612527050718224,0.4207809417724609,0.2501940734863281,9.861716638183593
2.2100024223327637,-0.0167779148674992,0.0062584285616862,-0.0616521792353343,0.4393360046386718,0.0945709655761718,9.935338339233398
2.2200043201446533,-0.0165115987584912,0.0097205379787892,-0.0633832339438858,0.2328361114501953,0.36391865234375,9.83897172241211
2.2300021648406982,-0.0218379209386497,0.0085221154882535,-0.0639158661619017,0.0053869537353515,0.1035492218017578,9.85812533569336
2.240004539489746,-0.0225037112111695,-0.0005326322180158,-0.0647148144889254,0.0053869537353515,0.1831564270019531,9.903615167236328
2.250001907348633,-0.0247673981377369,-0.0075900091067258,-0.0637827081073977,0.2843114471435546,0.0873883605957031,9.89643256225586
2.260004758834839,-0.027830033391328,-0.0063915866161901,-0.0619184953443422,0.4357447021484374,0.0820014068603515,9.93354268798828
2.2700016498565674,-0.027963191445832,-0.0010652644360316,-0.0617853372898383,0.4129997863769531,0.2663549346923828,9.785102185058593
2.2800049781799316,-0.0330231975169825,0.0051931641256545,-0.0619184953443422,0.1268926879882812,-0.0490811340332031,9.928155734252927
2.290001153945923,-0.0306263525359112,0.0007989483270237,-0.0631169178348779,-0.0538695373535156,0.2501940734863281,9.867702142333984
2.3000054359436035,-0.0359526747160697,-0.0094542218697812,-0.0631169178348779,0.0933738647460937,0.1089361755371093,9.85692823486328
2.3100013732910156,-0.0358195166615657,-0.0154463343224595,-0.0641821822709096,0.3591302490234375,0.0359130249023437,9.879673150634764
2.3200056552886963,-0.0359526747160697,-0.0121173829598605,-0.0651142886524373,0.4908113403320312,0.0736217010498046,9.888052856445311
2.330000877380371,-0.038349519697141,-0.0057257963436703,-0.0655137628159492,0.3968389251708984,0.0490811340332031,9.93952819213867
2.340005874633789,-0.0398142582966846,-0.0017310547085515,-0.0651142886524373,0.134673843383789,-0.1035492218017578,9.900023864746093
2.3500003814697266,-0.0367516230430934,-0.0055926382891664,-0.0636495500528938,0.0113724578857421,0.0706289489746093,9.813234054565427
2.360006093978882,-0.0391484680241648,-0.0146473859954358,-0.0641821822709096,0.1280897888183593,0.0604535919189453,9.884461553955076
2.3700003623962402,-0.0406132066237083,-0.0198405501210903,-0.0649811305979334,0.364517202758789,-0.0706289489746093,9.885060104370115
2.3800063133239746,-0.0384826777516449,-0.0149137021044437,-0.0651142886524373,0.4566939666748046,0.0185550628662109,9.948506448364258
2.390000104904175,-0.041811629114244,-0.0083889574337496,-0.0651142886524373,0.3082534637451172,-0.0377086761474609,9.91558617553711
2.4000065326690674,-0.0422111032777559,-0.0086552735427575,-0.0659132369794611,0.1215057342529296,-0.0891840118408203,9.827000714111328
2.4099998474121094,-0.0420779452232519,-0.013715279613908,-0.0645816564344215,0.0796072052001953,-0.1849520782470703,9.880271701049804
2.4200069904327393,-0.0412789968962281,-0.020639498448114,-0.0652474467069413,0.2962824554443359,0.0017956512451171,9.854534033203125
2.429999589920044,-0.0424774193867638,-0.0211721306661299,-0.0644484983799175,0.4129997863769531,-0.2220622039794921,9.950900650024414
2.440006971359253,-0.0390153099696608,-0.0146473859954358,-0.0641821822709096,0.374094009399414,-0.0981622680664062,9.923367330932615
2.4499993324279785,-0.0378168874791251,-0.0121173829598605,-0.0643153403254136,0.2645592834472656,-0.0155623107910156,9.840767373657226
2.4600071907043457,-0.0404800485692044,-0.0141147537774199,-0.0637827081073977,0.0173579620361328,-0.2256535064697265,9.916184725952148
2.469999313354492,-0.0354200424980538,-0.0215716048296418,-0.066312711142973,0.1556231079101562,-0.0029927520751953,9.804255798339844
2.4800076484680176,-0.0379500455336291,-0.0272974011733121,-0.0651142886524373,0.2986766571044921,-0.3399766357421875,10.001777435302731
2.4899990558624268,-0.0339553038985102,-0.0259658206282725,-0.0660463950339651,0.508169302368164,-0.258573779296875,9.903615167236328
2.5000078678131104,-0.0338221458440063,-0.0181094954125388,-0.0651142886524373,0.4441244079589843,-0.3244143249511718,9.931747036743165
2.5099985599517822,-0.0295610880998795,-0.0127831732323803,-0.0644484983799175,0.2082955444335937,-0.1783680236816406,9.87608184814453
2.520008087158203,-0.031158984753927,-0.017177389031011,-0.0635163919983898,0.0724246002197265,-0.3094505645751953,9.817423907470705
2.529998540878296,-0.0280963495003359,-0.024234765919721,-0.0635163919983898,0.1568202087402343,-0.2238578552246093,9.980828170776366
2.540008306503296,-0.0260989786827765,-0.0288952978273597,-0.0639158661619017,0.3716998077392578,-0.2070984436035156,9.88206735229492
2.5499985218048096,-0.0274305592278161,-0.0259658206282725,-0.0651142886524373,0.4812345336914062,-0.2603694305419922,9.935338339233398
2.5600080490112305,-0.0264984528462884,-0.0194410759575784,-0.0637827081073977,0.3980360260009765,-0.3938461730957031,9.92217023010254
2.5699989795684814,-0.0223705531566656,-0.0179763373580348,-0.0631169178348779,0.201112939453125,-0.3411737365722656,9.974244116210937
2.580007791519165,-0.020905814557122,-0.0218379209386497,-0.0624511275623581,0.1663970153808593,-0.3094505645751953,9.865307940673828
2.589998960494995,-0.0190416017940665,-0.0260989786827765,-0.0617853372898383,0.2501940734863281,-0.3375824340820312,9.979631069946288
2.6000077724456787,-0.0169110729220031,-0.0291616139363676,-0.062717443671366,0.4704606262207031,-0.4052186309814453,9.868300692749022
2.609999179840088,-0.0127831732323803,-0.0246342400832329,-0.0613858631263264,0.4417302062988281,-0.1945288848876953,10.019135397338866
2.620007276535034,-0.0133158054503961,-0.0215716048296418,-0.0625842856168621,0.3292027282714843,-0.259172329711914,9.821613760375977
2.6299991607666016,-0.0115847507418446,-0.0201068662300982,-0.0640490242164056,0.1161187805175781,-0.4752490295410156,9.999981784057615
2.6400067806243896,-0.0053263221801584,-0.027696875336824,-0.0639158661619017,0.2346317626953125,-0.1466448516845703,9.85632968444824
2.6499996185302734,-0.0074568510522218,-0.0303600364269033,-0.0633832339438858,0.287902749633789,-0.4046200805664062,10.101735354614258
2.6600067615509033,-0.003328951362599,-0.0291616139363676,-0.0629837597803739,0.4997895965576172,-0.4955997436523437,9.8449572265625
2.669999837875366,-0.0013315805450396,-0.0237021337017052,-0.0613858631263264,0.4800374328613281,-0.3010708587646484,10.021529598999022
2.680006504058838,0.0010652644360316,-0.0194410759575784,-0.0617853372898383,0.2950853546142578,-0.2609679809570312,9.929352835083009
2.690000057220459,0.0014647385995435,-0.0217047628841457,-0.0615190211808304,0.1951274353027343,-0.4351461517333984,9.881468801879882
2.7000062465667725,0.0053263221801584,-0.0256995045192646,-0.0619184953443422,0.1681926666259765,-0.2376245147705078,9.93294413757324
2.7100002765655518,0.0049268480166465,-0.0316916169719429,-0.0632500758893819,0.297479556274414,-0.2525882751464843,9.980828170776366
2.720005989074707,0.0058589543981743,-0.031158984753927,-0.0631169178348779,0.517746109008789,-0.3567360473632812,9.935338339233398
2.7300009727478027,0.0090547477062694,-0.0263652947917844,-0.0637827081073977,0.4387374542236328,-0.3471592407226562,10.05564697265625
2.7400057315826416,0.0110521185238288,-0.0230363434291854,-0.0636495500528938,0.3878606689453124,-0.3435679382324219,9.81862100830078
2.7500009536743164,0.013848437668412,-0.020905814557122,-0.06285060172587,0.2059013427734375,-0.3687070556640625,10.04906291809082
2.760005474090576,0.0133158054503961,-0.0267647689552963,-0.0611195470173185,0.2370259643554687,-0.36391865234375,9.84376012573242
2.770001173019409,0.0175768631945229,-0.0267647689552963,-0.0611195470173185,0.3615244506835937,-0.2184709014892578,10.01674119567871
2.7800052165985107,0.0190416017940665,-0.0275637172823201,-0.0616521792353343,0.402824429321289,-0.2765302917480469,9.923965881347655
2.790001153945923,0.0202400242846022,-0.0254331884102567,-0.0607200728538066,0.3806780639648437,-0.2454056701660156,9.936535440063476
2.8000049591064453,0.020905814557122,-0.0211721306661299,-0.062717443671366,0.297479556274414,-0.2567781280517578,9.87069489440918
2.8100016117095947,0.0226368692656735,-0.024367923974225,-0.0625842856168621,0.2310404602050781,-0.1358709442138671,10.03709190979004
2.82000470161438,0.0218379209386497,-0.0266316109007923,-0.0623179695078541,0.3375824340820312,-0.4034229797363281,9.935338339233398
2.8300018310546875,0.0259658206282725,-0.0271642431188082,-0.0619184953443422,0.4459200592041015,-0.3477577911376953,10.081384640502929
2.8400044441223145,0.0250337142467448,-0.0250337142467448,-0.0605869147993026,0.5213374114990235,-0.1747767211914062,9.86411083984375
2.8500020503997803,0.0259658206282725,-0.0201068662300982,-0.0588558600907511,0.3465606903076171,-0.3244143249511718,10.007164389038085
2.860004186630249,0.027696875336824,-0.0191747598485705,-0.0575242795457115,0.2454056701660156,-0.0754173522949218,9.85812533569336
2.870002508163452,0.0254331884102567,-0.0214384467751378,-0.0584563859272392,0.2184709014892578,-0.2555810272216797,10.041880313110353
2.8800041675567627,0.027830033391328,-0.0241016078652171,-0.0587227020362472,0.3471592407226562,-0.0712274993896484,9.93354268798828
2.890002965927124,0.0258326625737686,-0.0237021337017052,-0.059122176199759,0.4674678741455078,-0.2579752288818359,9.964068759155271
2.900003671646118,0.0287621397728557,-0.0201068662300982,-0.059255334254263,0.4872200378417968,-0.1221042846679687,9.952696301269532
2.9100029468536377,0.0286289817183518,-0.0142479118319239,-0.0571248053821996,0.3866635681152343,-0.2831143463134765,9.969455712890625
2.9200031757354736,0.0303600364269033,-0.0133158054503961,-0.0565921731641838,0.2855085479736328,-0.1238999359130859,9.964667309570313
2.9300031661987305,0.0294279300453755,-0.0142479118319239,-0.05579322483716,0.220865103149414,-0.1376665954589843,9.99878468322754
2.9400031566619873,0.031292142808431,-0.0169110729220031,-0.0555269087281521,0.3830722656249999,-0.0754173522949218,9.964667309570313
2.9500033855438232,0.0296942461543835,-0.0149137021044437,-0.0548611184556323,0.4584896179199218,-0.0820014068603515,10.027515103149414
2.960002899169922,0.0294279300453755,-0.0097205379787892,-0.05579322483716,0.4453215087890624,-0.0341173736572265,9.94730934753418
2.970003366470337,0.027963191445832,-0.0059921124526782,-0.0551274345646402,0.3441664886474609,-0.1268926879882812,9.93414123840332
2.9800026416778564,0.0283626656093438,-0.0046605319076386,-0.0547279604011283,0.2418143676757812,-0.1071405242919921,9.99698903198242
2.990003824234009,0.0288952978273597,-0.0073236929977179,-0.0535295379105926,0.297479556274414,-0.0502782348632812,9.980828170776366
3.000002384185791,0.027830033391328,-0.0081226413247416,-0.0520647993110491,0.3956418243408203,-0.0622492431640624,9.944316595458984
3.0100040435791016,0.0270310850643042,-0.0061252705071822,-0.0516653251475372,0.4578910675048828,-0.1388636962890625,9.981426721191406
3.0200023651123047,0.027830033391328,-0.0011984224905356,-0.0513990090385292,0.3974374755859374,0.0329202728271484,10.057442623901366
3.0300045013427734,0.0268979270098003,0.0018642127630554,-0.0519316412565451,0.3208230224609374,0.0688332977294921,9.874884747314452
3.04000186920166,0.0247673981377369,0.0019973708175594,-0.0517984832020411,0.2561795776367187,-0.1322796417236328,9.941922393798828
3.050004720687866,0.0274305592278161,-0.0001331580545039,-0.0512658509840253,0.287902749633789,0.0646434448242187,9.955090502929687
3.0600016117095947,0.0251668723012488,-0.0014647385995435,-0.0496679543299777,0.4070142822265625,0.0149637603759765,9.97903251953125
3.07000470161438,0.0241016078652171,0.0013315805450396,-0.0499342704389857,0.4866214874267577,-0.1101332763671874,9.931747036743165
3.0800015926361084,0.0267647689552963,0.0062584285616862,-0.0492684801664659,0.326209976196289,0.0371101257324218,9.968857162475585
3.0900051593780518,0.0237021337017052,0.0097205379787892,-0.0478037415669223,0.2747346405029297,0.0203507141113281,9.913790524291992
3.100001335144043,0.0246342400832329,0.0097205379787892,-0.0468716351853945,0.1903390319824218,0.0502782348632812,9.964667309570313
3.1100053787231445,0.0222373951021616,0.0061252705071822,-0.0468716351853945,0.3058592620849609,-0.038905776977539,9.926360083007811
3.1200008392333984,0.0239684498107131,0.0062584285616862,-0.0463390029673787,0.3806780639648437,0.2047042419433593,9.95389340209961
3.1300055980682373,0.0182426534670427,0.0105194863058129,-0.0466053190763866,0.4052186309814453,-0.0891840118408203,9.970652813720704
3.140000581741333,0.0211721306661299,0.013981595722916,-0.0466053190763866,0.3303998291015624,0.0825999572753906,9.944316595458984
3.150005578994751,0.0190416017940665,0.0166447568129952,-0.0442084740953153,0.2202665527343749,0.05746083984375,9.951499200439452
3.1600005626678467,0.0175768631945229,0.0145142279409318,-0.0438089999318034,0.1765723724365234,0.0071826049804687,9.964667309570313
3.170006036758423,0.017177389031011,0.0109189604693248,-0.0438089999318034,0.3345896820068359,0.0107739074707031,9.861716638183593
3.180000066757202,0.0179763373580348,0.0127831732323803,-0.0426105774412678,0.3597287994384765,0.1771709228515625,10.000580334472655
3.1900062561035156,0.0149137021044437,0.0159789665404754,-0.0424774193867638,0.3728969085693359,0.0299275207519531,9.87608184814453
3.200000047683716,0.0143810698864278,0.0223705531566656,-0.04167847105974,0.1227028350830078,-0.1687912170410156,10.058639724731444
3.2100067138671875,0.0214384467751378,0.0163784407039873,-0.0436758418772995,0.3663128540039062,0.6404489440917969,9.583989245605467
3.219999313354492,0.0035952674716069,0.0185089695760507,-0.0411458388417242,0.0921767639160156,-0.63206923828125,10.225036740112303
3.2300069332122803,0.0255663464647606,0.0135821215594041,-0.0406132066237083,0.4201823913574218,0.5189432098388671,9.43614729309082
3.239999771118164,0.0086552735427575,0.0193079179030744,-0.0404800485692044,0.2262520568847656,-0.0011971008300781,10.416572872924805
3.250007390975952,0.0123836990688684,0.0199737081755942,-0.0415453130052361,0.3202244720458984,0.0143652099609375,9.570821136474608
3.2599992752075195,0.0130494893413882,0.0226368692656735,-0.0395479421876766,0.0730231506347656,0.3028665100097656,10.107720858764647
3.270007610321045,0.0065247446706941,0.0170442309765071,-0.0398142582966846,0.2118868469238281,-0.1849520782470703,9.421782083129882
3.279998779296875,0.0131826473958922,0.0166447568129952,-0.0398142582966846,0.0664390960693359,0.6697779144287109,10.275913525390624
3.2900075912475586,-0.0039947416351188,0.0105194863058129,-0.0375505713701172,0.4010287780761719,-0.7535749725341796,9.557653027343749
3.2999987602233887,0.0178431793035308,0.0178431793035308,-0.0372842552611093,0.2100911956787109,0.7936778503417968,10.392630856323242
3.3100075721740723,-0.0054594802346624,0.017177389031011,-0.0344879361165261,0.3034650604248046,-0.3333925811767578,9.299079248046874
3.3199985027313232,0.0073236929977179,0.0210389726116259,-0.0379500455336291,-0.0209492645263671,0.2454056701660156,10.290877285766602
3.3300082683563232,-0.0027963191445832,0.0135821215594041,-0.0360858327705736,0.1789665740966796,-0.2316390106201172,9.414599478149414
3.339998245239258,0.0089215896517654,0.0131826473958922,-0.0371510972066053,0.0514753356933593,0.6356605407714844,10.347739575195313
3.350008010864258,-0.0085221154882535,0.0082557993792456,-0.0358195166615657,0.3423708374023437,-0.3986345764160156,9.481038574218749
3.3599984645843506,0.0041278996896228,0.0117179087963486,-0.0364853069340855,0.1681926666259765,0.1077390747070312,10.262146865844723
3.3700075149536133,0.0013315805450396,0.0130494893413882,-0.0356863586070617,0.2364274139404296,0.3782838623046874,9.433154541015623
3.3799986839294434,-0.006657902725198,0.013981595722916,-0.0351537263890459,-0.0089782562255859,-0.4094084838867187,10.143035333251952
3.390007495880127,0.003328951362599,0.0046605319076386,-0.0340884619530142,0.2160766998291015,0.2561795776367187,9.4098110748291
3.399998903274536,-0.0015978966540475,0.006657902725198,-0.0338221458440063,-0.0724246002197265,0.1592144104003906,10.308833798217773
3.4100072383880615,-0.0051931641256545,-0.0021305288720633,-0.0323574072444627,0.4483142608642578,-0.0233434661865234,9.414599478149414
3.419999361038208,-0.0030626352535911,0.0073236929977179,-0.0327568814079746,0.1095347259521484,-0.0742202514648437,10.214262832641602
3.430006980895996,-0.0027963191445832,0.0030626352535911,-0.0310258266994231,0.2226607543945312,0.3770867614746093,9.546280569458007
3.4399993419647217,-0.0127831732323803,0.0014647385995435,-0.0302268783723993,0.0173579620361328,-0.2627636322021484,10.212467181396484
3.4500069618225098,-0.0051931641256545,-0.003462109417103,-0.0292947719908716,0.1777694732666015,0.0538695373535156,9.458293658447266
3.4599995613098145,-0.0099868540877971,-0.0057257963436703,-0.0292947719908716,0.163404263305664,0.1574187591552734,10.038887561035155
3.4700064659118652,-0.0127831732323803,-0.0063915866161901,-0.0274305592278161,0.3094505645751953,-0.1945288848876953,9.669581954956056
3.4800000190734863,-0.0086552735427575,-0.0049268480166465,-0.0291616139363676,0.2202665527343749,0.1029506713867187,9.99698903198242
3.4900062084198,-0.0117179087963486,-0.0038615835806148,-0.0270310850643042,0.1101332763671874,0.0233434661865234,9.731232647705076
3.500000238418579,-0.0114515926873407,-0.0078563252157337,-0.0268979270098003,0.0909796630859375,0.0724246002197265,9.943119494628906
3.5100061893463135,-0.0123836990688684,-0.0118510668508526,-0.0254331884102567,0.1873462799072265,-0.1789665740966796,9.726444244384766
3.520000457763672,-0.0091879057607733,-0.0149137021044437,-0.0246342400832329,0.2513911743164062,0.2226607543945312,9.956886154174803
3.530006170272827,-0.0161121245949793,-0.0161121245949793,-0.0238352917562091,0.3148375183105468,-0.3669114044189452,9.801861596679688
3.5400006771087646,-0.0093210638152773,-0.0122505410143644,-0.0218379209386497,0.2663549346923828,0.1041477722167968,9.810839852905271
3.5500056743621826,-0.0145142279409318,-0.0130494893413882,-0.0201068662300982,0.0820014068603515,-0.0760159027099609,9.97783541870117
3.5600013732910156,-0.0150468601589476,-0.0183758115215467,-0.0189084437395625,0.1107318267822265,-0.201112939453125,9.76175871887207
3.5700056552886963,-0.0118510668508526,-0.0222373951021616,-0.0185089695760507,0.1789665740966796,0.0149637603759765,9.836577520751952
3.5800013542175293,-0.0154463343224595,-0.0255663464647606,-0.017177389031011,0.3256114257812499,-0.0383072265625,9.873687646484374
3.5900051593780518,-0.0161121245949793,-0.0230363434291854,-0.0163784407039873,0.326209976196289,-0.1508347045898437,9.880870251464843
3.600001573562622,-0.0151800182134516,-0.0218379209386497,-0.0151800182134516,0.259172329711914,-0.0975637176513671,9.788094937133788
3.6100049018859863,-0.0135821215594041,-0.0225037112111695,-0.0141147537774199,0.1406593475341797,0.1137245788574218,9.941922393798828
3.620002031326294,-0.0193079179030744,-0.0258326625737686,-0.0115847507418446,0.1759738220214843,-0.3106476654052734,9.835380419921874
3.630004644393921,-0.0129163312868843,-0.0282295075548399,-0.010253170196805,0.2531868255615234,0.1065419738769531,9.97244846496582
3.6400020122528076,-0.0159789665404754,-0.0292947719908716,-0.0093210638152773,0.374094009399414,-0.0652419952392578,9.821015209960937
3.6500043869018555,-0.0154463343224595,-0.0274305592278161,-0.0094542218697812,0.3441664886474609,-0.1227028350830078,9.879074600219726
3.6600022315979004,-0.0146473859954358,-0.0258326625737686,-0.0077231671612297,0.2460042205810546,-0.1364694946289062,9.88206735229492
3.67000412940979,-0.0129163312868843,-0.0283626656093438,-0.0061252705071822,0.1879448303222656,-0.0502782348632812,9.923367330932615
3.680002450942993,-0.013848437668412,-0.0310258266994231,-0.0058589543981743,0.2376245147705078,-0.1472434020996093,9.792284790039062
3.6900038719177246,-0.0125168571233724,-0.0328900394624785,-0.0046605319076386,0.3214215728759765,-0.2412158172607421,9.98561657409668
3.700002670288086,-0.0093210638152773,-0.0315584589174389,-0.0030626352535911,0.4177881896972656,-0.0071826049804687,9.8970311126709
3.710003614425659,-0.0123836990688684,-0.0304931944814072,-0.0026631610900792,0.4004302276611328,-0.125097036743164,9.93952819213867
3.720003366470337,-0.0111852765783328,-0.0287621397728557,-0.0017310547085515,0.2765302917480469,-0.1041477722167968,9.970652813720704
3.7300033569335938,-0.0115847507418446,-0.0298274042088874,-0.0009321063815277,0.2920926025390625,-0.1221042846679687,9.879074600219726
3.7400033473968506,-0.0107858024148209,-0.0308926686449191,-0.0010652644360316,0.2633621826171874,-0.0412999786376953,9.9461122467041
3.7500030994415283,-0.0123836990688684,-0.0324905652989667,0.0005326322180158,0.3561374969482421,-0.1663970153808593,9.904812268066406
3.7600035667419434,-0.0087884315972614,-0.0316916169719429,0.0007989483270237,0.4159925384521484,-0.1460463012695312,9.928155734252927
3.770002841949463,-0.0071905349432139,-0.0288952978273597,0.0019973708175594,0.393247622680664,-0.0538695373535156,9.86351228942871
3.780003786087036,-0.0086552735427575,-0.0282295075548399,0.0027963191445832,0.3363853332519531,-0.1478419525146484,9.97783541870117
3.7900025844573975,-0.0053263221801584,-0.0294279300453755,0.003195793308095,0.3351882324218749,-0.096366616821289,9.890447058105469
3.800004005432129,-0.0047936899621426,-0.031425300862935,0.0041278996896228,0.3914519714355468,-0.0383072265625,9.95329485168457
3.810002326965332,-0.0038615835806148,-0.0298274042088874,0.003462109417103,0.4477157104492187,0.0119710083007812,10.002375985717771
3.820004463195801,-0.0061252705071822,-0.027830033391328,0.0050600060711505,0.4177881896972656,-0.172981069946289,9.928754284667969
3.8300020694732666,-0.0014647385995435,-0.0251668723012488,0.0042610577441267,0.4339490509033203,-0.0311246215820312,9.898228213500976
3.8400044441223145,-0.0027963191445832,-0.0253000303557527,0.0062584285616862,0.3268085266113281,-0.0365115753173828,10.01674119567871
3.850001573562622,-0.0030626352535911,-0.0275637172823201,0.006657902725198,0.3256114257812499,-0.1628057128906249,9.892841259765625
3.8600046634674072,-0.0026631610900792,-0.0296942461543835,0.0075900091067258,0.3962403747558593,-0.1651999145507812,10.036493359375
3.8700015544891357,0.0010652644360316,-0.0287621397728557,0.0087884315972614,0.4656722229003906,0.0999579193115234,10.007762939453125
3.880005121231079,-0.003328951362599,-0.024367923974225,0.0082557993792456,0.4674678741455078,-0.1185129821777343,9.974244116210937
3.8900017738342285,-0.0013315805450396,-0.0229031853746814,0.0097205379787892,0.4159925384521484,-0.1514332550048828,9.989806427001952
3.900005340576172,0.0029294771990871,-0.0213052887206339,0.0089215896517654,0.3627215515136718,0.1759738220214843,9.994594830322264
3.910001277923584,-0.0017310547085515,-0.0230363434291854,0.010386328251309,0.3884592193603515,-0.1957259857177734,9.917381826782226
3.9200055599212646,0.0015978966540475,-0.0238352917562091,0.0095873799242852,0.4273649963378906,-0.1268926879882812,9.974244116210937
3.9300007820129395,0.003195793308095,-0.0226368692656735,0.0110521185238288,0.4608838195800781,0.0107739074707031,10.014945544433592
3.9400057792663574,0.0022636869265673,-0.0203731823391061,0.0125168571233724,0.4662707733154296,-0.0275333190917968,9.90840357055664
3.950000762939453,0.0023968449810713,-0.0191747598485705,0.013848437668412,0.3627215515136718,-0.2406172668457031,10.022726699829102
3.96000599861145,0.0053263221801584,-0.0203731823391061,0.0130494893413882,0.3315969299316406,0.1005564697265625,9.9461122467041
3.9700005054473877,0.0038615835806148,-0.0225037112111695,0.0146473859954358,0.3705027069091797,-0.0173579620361328,9.986215124511718
3.980006456375122,0.0041278996896228,-0.0250337142467448,0.0155794923769635,0.4716577270507812,-0.1280897888183593,9.99220062866211
3.9900002479553223,0.0057257963436703,-0.0221042370476576,0.0165115987584912,0.5452794281005859,0.1197100830078125,9.95868180541992
4.000006675720215,0.0039947416351188,-0.0167779148674992,0.0163784407039873,0.498592495727539,-0.0041898529052734,9.976638317871092
4.009999990463257,0.0021305288720633,-0.0159789665404754,0.0189084437395625,0.3507505432128906,-0.1131260284423828,9.99220062866211
4.020006895065308,0.0047936899621426,-0.0183758115215467,0.0189084437395625,0.3303998291015624,0.0502782348632812,9.917381826782226
4.029999732971191,0.0035952674716069,-0.0223705531566656,0.0201068662300982,0.3956418243408203,-0.0347159240722656,9.929951385498049
4.0400071144104,0.0051931641256545,-0.0254331884102567,0.0226368692656735,0.4967968444824218,-0.0466869323730468,10.001178884887697
4.049999475479126,0.006924218834206,-0.0238352917562091,0.0229031853746814,0.612915625,0.0532709869384765,9.96586441040039
4.060007333755493,0.0049268480166465,-0.0186421276305546,0.024367923974225,0.5614402893066406,0.0891840118408203,9.970652813720704
4.0699992179870605,0.0050600060711505,-0.0161121245949793,0.0253000303557527,0.4082113830566406,-0.1023521209716796,9.90840357055664
4.080007791519165,0.0070573768887099,-0.0187752856850586,0.0264984528462884,0.2651578338623047,0.0909796630859375,9.949703549194336
4.089998960494995,0.0053263221801584,-0.0245010820287289,0.0262321367372804,0.36391865234375,0.0215478149414062,9.889848507690427
4.100008010864258,0.0041278996896228,-0.027696875336824,0.0283626656093438,0.5183446594238281,-0.21068974609375,9.962871658325197
4.109998941421509,0.0079894832702377,-0.024234765919721,0.0287621397728557,0.6548141540527344,0.0742202514648437,10.001777435302731
4.120008230209351,0.0059921124526782,-0.0202400242846022,0.0308926686449191,0.6105214233398437,0.048482583618164,9.941323843383788
4.129998445510864,0.0059921124526782,-0.0161121245949793,0.0307595105904152,0.4112041351318359,-0.1244984863281249,9.970652813720704
4.140008449554443,0.0070573768887099,-0.0169110729220031,0.0318247750264469,0.2986766571044921,0.0460883819580078,9.865307940673828
4.149998426437378,0.0075900091067258,-0.0221042370476576,0.0318247750264469,0.3298012786865234,0.1083376251220703,9.95868180541992
4.160008192062378,0.0049268480166465,-0.027830033391328,0.0320910911354548,0.5165490081787109,-0.1394622467041015,9.87608184814453
4.16999888420105,0.0061252705071822,-0.024367923974225,0.0331563555714865,0.623090982055664,-0.0993593688964843,9.967660061645509
4.180008172988892,0.0062584285616862,-0.0195742340120824,0.0358195166615657,0.6889315277099609,0.0562637390136718,9.85812533569336
4.189999103546143,0.0058589543981743,-0.013981595722916,0.0366184649885895,0.4656722229003906,-0.0472854827880859,10.038289010620115
4.200007677078247,0.0050600060711505,-0.0147805440499397,0.0388821519151568,0.3681085052490234,-0.0760159027099609,9.771934075927732
4.209999322891235,0.0062584285616862,-0.0191747598485705,0.0387489938606529,0.3615244506835937,0.0317231719970703,9.980229620361328
4.2200071811676025,0.0055926382891664,-0.0231695014836893,0.0391484680241648,0.51714755859375,0.1023521209716796,9.829993466186522
4.229999780654907,0.0045273738531347,-0.0231695014836893,0.0400805744056925,0.6841431243896484,-0.1879448303222656,9.93952819213867
4.240007162094116,0.0065247446706941,-0.0177100212490269,0.0412789968962281,0.6643909606933593,0.0143652099609375,9.889848507690427
4.249999761581421,0.0070573768887099,-0.0118510668508526,0.041944787168748,0.4776432312011718,0.1149216796875,9.96586441040039
4.260006904602051,0.0037284255261109,-0.0114515926873407,0.0442084740953153,0.3489548919677734,-0.1514332550048828,9.871891995239258
4.269999980926514,0.0057257963436703,-0.0170442309765071,0.0455400546403549,0.3830722656249999,-0.1113303771972656,9.86351228942871
4.280006647109985,0.006657902725198,-0.0210389726116259,0.045273738531347,0.5153519073486328,0.1693897674560547,9.931747036743165
4.2900002002716064,0.003328951362599,-0.0202400242846022,0.0464721610218827,0.6859387756347656,-0.105344873046875,9.842563024902343
4.30000638961792,0.0053263221801584,-0.0143810698864278,0.0478037415669223,0.6560112548828124,-0.2005143890380859,9.973645565795898
4.310000658035278,0.0082557993792456,-0.010386328251309,0.0492684801664659,0.5518634826660156,0.1556231079101562,9.851541281127927
4.3200061321258545,0.0041278996896228,-0.0087884315972614,0.0494016382209698,0.3555389465332031,-0.086789810180664,9.861716638183593
4.330000638961792,0.0046605319076386,-0.013981595722916,0.0507332187660094,0.3992331268310546,-0.201711489868164,9.789292037963866
4.340005874633789,0.0101200121423011,-0.0179763373580348,0.0504669026570015,0.5267243652343749,0.1113303771972656,9.950302099609374
4.350001096725464,0.0074568510522218,-0.0169110729220031,0.0525974315290649,0.6350619903564453,0.0299275207519531,9.84555577697754
4.360005617141724,0.0059921124526782,-0.0125168571233724,0.0540621701286085,0.6811503723144531,-0.3196259216308593,9.89583401184082
4.370001316070557,0.0123836990688684,-0.006791060779702,0.0547279604011283,0.5913678100585937,0.1125274780273437,9.809044201660155
4.380005359649658,0.0086552735427575,-0.0049268480166465,0.0552605926191441,0.3830722656249999,0.1071405242919921,9.861118087768554
4.3900017738342285,0.0065247446706941,-0.0085221154882535,0.0548611184556323,0.36391865234375,-0.3034650604248046,9.832986218261718
4.400005102157593,0.0133158054503961,-0.0115847507418446,0.0561926990006719,0.5117606048583984,-0.0119710083007812,9.841365924072266
4.410001754760742,0.0135821215594041,-0.0126500151778763,0.0568584892731917,0.6063315704345703,0.115520230102539,9.90241806640625
4.4200050830841064,0.0082557993792456,-0.0098536960332931,0.0597879664722788,0.7122749938964843,-0.3028665100097656,9.8449572265625
4.430001974105835,0.0153131762679556,-0.0027963191445832,0.0607200728538066,0.5847837554931641,-0.0682347473144531,9.847351428222655
4.440004587173462,0.0150468601589476,-0.0018642127630554,0.0615190211808304,0.4267664459228515,0.240018716430664,9.81263550415039
4.450002431869507,0.0119842249053565,-0.0043942157986307,0.0621848114533502,0.3190273712158203,-0.2729389892578124,9.87727894897461
4.4600043296813965,0.0161121245949793,-0.0083889574337496,0.0623179695078541,0.4333505004882812,-0.105943423461914,9.80545289916992
4.4700026512146,0.0177100212490269,-0.0107858024148209,0.0632500758893819,0.5985504150390625,0.1424549987792968,9.9078050201416
4.480004072189331,0.0125168571233724,-0.0075900091067258,0.0635163919983898,0.6679822631835937,-0.1562216583251953,9.956886154174803
4.490002870559692,0.0161121245949793,-0.0010652644360316,0.0676442916880126,0.6787561706542968,-0.2477998718261718,9.7928833404541
4.5000035762786865,0.020639498448114,0.0037284255261109,0.0671116594699968,0.4572925170898437,0.230441909790039,9.95868180541992
4.510003089904785,0.0143810698864278,-0.0005326322180158,0.0688427141785483,0.3435679382324219,-0.0897825622558593,9.767145672607422
4.5200035572052,0.0185089695760507,-0.0037284255261109,0.0689758722330522,0.3573345977783203,-0.2232593048095703,9.880271701049804
4.530003309249878,0.0210389726116259,-0.0082557993792456,0.0688427141785483,0.527322915649414,0.153827456665039,9.835380419921874
4.540003776550293,0.0191747598485705,-0.0047936899621426,0.0712395591596196,0.6404489440917969,-0.0849941589355468,9.974842666625976
4.55000376701355,0.0198405501210903,0.0014647385995435,0.0720385074866434,0.6530185028076172,-0.2130839477539062,9.76774422302246
4.560003280639648,0.0231695014836893,0.0055926382891664,0.0729706138681711,0.4572925170898437,0.0855927093505859,9.964068759155271
4.570003986358643,0.0213052887206339,0.0053263221801584,0.0729706138681711,0.3052607116699218,0.0748188018798828,9.775525378417967
4.580003023147583,0.0201068662300982,-0.0018642127630554,0.0737695621951949,0.3298012786865234,-0.2609679809570312,9.872490545654296
4.590004205703735,0.0260989786827765,-0.0054594802346624,0.0743021944132107,0.5291185668945312,0.1370680450439453,9.85692823486328
4.600002765655518,0.0225037112111695,-0.0038615835806148,0.0760332491217622,0.7044938385009765,0.0209492645263671,9.96047745666504
4.610004425048828,0.0219710789931537,0.0013315805450396,0.076699039394282,0.6434416961669921,-0.1651999145507812,9.86411083984375
4.620002508163452,0.0264984528462884,0.0073236929977179,0.0776311457758097,0.4345476013183593,0.1322796417236328,9.931148486328125
4.630004644393921,0.0250337142467448,0.0071905349432139,0.0777643038303137,0.2807201446533203,0.105344873046875,9.83897172241211
4.640002250671387,0.0229031853746814,0.0017310547085515,0.0781637779938256,0.2867056488037109,-0.1137245788574218,9.93354268798828
4.650004863739014,0.0266316109007923,-0.0039947416351188,0.0784300941028335,0.4812345336914062,0.0538695373535156,9.88386300354004
4.660001993179321,0.0263652947917844,-0.0038615835806148,0.0788295682663454,0.6500257507324219,0.1412578979492187,9.983820922851562
4.6700050830841064,0.0231695014836893,0.0014647385995435,0.0808269390839048,0.7032967376708984,-0.0915782135009765,9.873089096069336
4.680001735687256,0.0260989786827765,0.0082557993792456,0.0808269390839048,0.4177881896972656,0.0730231506347656,9.97184991455078
4.690005302429199,0.0267647689552963,0.0075900091067258,0.0814927293564246,0.287902749633789,0.2154781494140625,9.789890588378906
4.70000147819519,0.024234765919721,0.0023968449810713,0.0808269390839048,0.2250549560546874,-0.0736217010498046,9.95987890625
4.710005521774292,0.0266316109007923,-0.0045273738531347,0.0796285165933692,0.4429273071289062,0.0969651672363281,9.82580361328125
4.720001459121704,0.0264984528462884,-0.0042610577441267,0.0818922035199365,0.6769605194091797,0.1412578979492187,9.988609326171874
4.730005741119385,0.0245010820287289,0.0018642127630554,0.0820253615744405,0.7009025360107421,0.0017956512451171,9.949703549194336
4.74000096321106,0.0256995045192646,0.0098536960332931,0.0832237840649762,0.4435258575439453,0.0359130249023437,9.917980377197264
4.7500059604644775,0.0251668723012488,0.0109189604693248,0.0825579937924563,0.2047042419433593,0.2076969940185546,9.865307940673828
4.760000705718994,0.0231695014836893,0.0015978966540475,0.0826911518469603,0.1867477294921875,0.0879869110107421,9.936535440063476
4.770006418228149,0.0234358175926972,-0.0059921124526782,0.0817590454654326,0.3908534210205078,0.0059855041503906,9.97184991455078
4.780000448226929,0.0231695014836893,-0.0082557993792456,0.0829574679559682,0.7356184600830078,0.172981069946289,9.852139831542967
4.790006637573242,0.020772656502618,0.0018642127630554,0.0845553646100158,0.690128628540039,0.0837970581054687,10.058639724731444
4.800000190734863,0.0205063403936101,0.0085221154882535,0.0854874709915435,0.4638765716552734,0.1071405242919921,9.85692823486328
4.810006856918335,0.0210389726116259,0.0101200121423011,0.0852211548825356,0.1262941375732421,0.2472013214111328,9.975441217041014
4.819999694824219,0.0181094954125388,0.0010652644360316,0.0862864193185673,0.1412578979492187,0.125097036743164,9.891644158935549
4.830007076263428,0.0181094954125388,-0.0081226413247416,0.0864195773730712,0.393247622680664,0.1262941375732421,10.027515103149414
4.839999675750732,0.0170442309765071,-0.0101200121423011,0.0862864193185673,0.6865373260498047,0.2190694519042968,9.938331091308592
4.8500072956085205,0.0135821215594041,-0.0011984224905356,0.0874848418091029,0.699106884765625,0.1137245788574218,10.022726699829102
4.859999179840088,0.0150468601589476,0.006791060779702,0.0892158965176544,0.4896142395019531,0.2118868469238281,9.898228213500976
4.870007514953613,0.0141147537774199,0.0087884315972614,0.0890827384631505,0.1550245574951171,0.2406172668457031,9.945513696289062
4.879999160766602,0.0107858024148209,-0.0002663161090079,0.0896153706811663,0.1209071838378906,0.1759738220214843,9.945513696289062
4.890007972717285,0.0106526443603169,-0.0101200121423011,0.0909469512262059,0.4465186096191406,0.1496376037597656,9.913191973876952
4.899998903274536,0.0113184346328367,-0.0105194863058129,0.0904143190081901,0.6913257293701172,0.2819172454833984,10.031106405639648
4.910008192062378,0.006791060779702,-0.003328951362599,0.0930774800982693,0.7350199096679687,0.0808043060302734,9.988010775756836
4.919998645782471,0.0083889574337496,0.0071905349432139,0.0937432703707891,0.4626794708251953,0.2352303131103515,9.976638317871092
4.930008411407471,0.0062584285616862,0.0079894832702377,0.0921453737167416,0.1568202087402343,0.3471592407226562,9.93952819213867
4.939998626708984,0.0027963191445832,-0.0009321063815277,0.0925448478802535,0.1262941375732421,0.0305260711669921,9.95868180541992
4.950008392333984,0.0039947416351188,-0.0098536960332931,0.0930774800982693,0.4076128326416015,0.2244564056396484,9.966462960815427
4.959998846054077,0.0018642127630554,-0.0098536960332931,0.0921453737167416,0.6925228302001952,0.2962824554443359,10.008960040283204
4.97000789642334,-0.0010652644360316,-0.0011984224905356,0.0926780059347574,0.7074865905761718,0.0538695373535156,10.03589480895996
4.97999906539917,0.0002663161090079,0.0077231671612297,0.094275902588805,0.4381389038085937,0.1873462799072265,9.97184991455078
4.990008115768433,0.0002663161090079,0.0091879057607733,0.0933437962072772,0.1562216583251953,0.4088099334716796,9.988010775756836
4.999999761581421,-0.0059921124526782,0.0015978966540475,0.0938764284252931,0.17238251953125,0.1520318054199218,9.950302099609374
5.010007858276367,-0.003328951362599,-0.006924218834206,0.0945422186978129,0.4273649963378906,0.1418564483642578,9.906009368896484
5.019999742507935,-0.0035952674716069,-0.0058589543981743,0.0930774800982693,0.6350619903564453,0.4207809417724609,10.076596237182615
5.030007600784302,-0.0091879057607733,0.0029294771990871,0.0949416928613248,0.613514175415039,0.029328970336914,9.950302099609374
5.039999961853027,-0.0063915866161901,0.0101200121423011,0.0956074831338446,0.354341845703125,0.1286883392333984,9.94730934753418
5.050007343292236,-0.0078563252157337,0.0071905349432139,0.0973385378423961,0.1963245361328124,0.3196259216308593,9.923965881347655
5.06000018119812,-0.010386328251309,-0.0007989483270237,0.097871170060412,0.2902969512939453,0.2232593048095703,9.973645565795898
5.070007085800171,-0.0130494893413882,-0.0053263221801584,0.0997353828234674,0.4812345336914062,-0.0448912811279296,9.841365924072266
5.080000400543213,-0.0083889574337496,-0.003328951362599,0.0994690667144595,0.5877765075683593,0.4327519500732422,10.034099157714843
5.0900068283081055,-0.0151800182134516,0.0029294771990871,0.0984038022784278,0.5057751007080078,0.1203086334228515,9.925162982177731
5.100000381469727,-0.0150468601589476,0.0063915866161901,0.0997353828234674,0.2460042205810546,-0.0239420166015624,9.93354268798828
5.11000657081604,-0.0123836990688684,0.0017310547085515,0.1008006472594991,0.1628057128906249,0.240018716430664,9.906607919311522
5.1200010776519775,-0.0161121245949793,-0.0063915866161901,0.1026648600225546,0.3848679168701172,0.2406172668457031,9.929951385498049
5.130006313323975,-0.0170442309765071,-0.006924218834206,0.1026648600225546,0.5578489868164063,-0.0011971008300781,9.893439810180665
5.14000129699707,-0.0162452826494833,-0.0018642127630554,0.1033306502950744,0.5805939025878906,0.038905776977539,9.85692823486328
5.150006055831909,-0.0126500151778763,0.0045273738531347,0.1039964405675942,0.3447650390625,0.4135983367919921,9.973645565795898
5.160001516342163,-0.020905814557122,0.0017310547085515,0.10452907278561,0.1735796203613281,-0.086789810180664,9.90122096557617
5.170005559921265,-0.0151800182134516,-0.006791060779702,0.1059938113851536,0.1861491790771484,0.0227449157714843,9.868300692749022
5.180001735687256,-0.0145142279409318,-0.0143810698864278,0.1075917080392012,0.5051765502929687,0.296881005859375,9.880271701049804
5.190005779266357,-0.017177389031011,-0.0106526443603169,0.1070590758211853,0.612915625,0.0993593688964843,9.931148486328125
5.200001955032349,-0.0191747598485705,-0.0053263221801584,0.108257498311721,0.5584475372314452,-0.1849520782470703,9.791087689208984
5.210005283355713,-0.0121173829598605,-0.0001331580545039,0.1087901305297368,0.1903390319824218,0.3202244720458984,10.003573086547853
5.220002174377441,-0.0183758115215467,-0.0061252705071822,0.1094559208022566,0.115520230102539,0.1897404815673828,9.770138424682616
5.2300050258636475,-0.0202400242846022,-0.0142479118319239,0.1110538174563042,0.2537853759765625,-0.3483563415527343,9.980828170776366
5.240002393722534,-0.0117179087963486,-0.0191747598485705,0.1127848721648557,0.6290764862060546,0.2190694519042968,9.877877499389648
5.250004768371582,-0.0153131762679556,-0.0134489635049001,0.1133175043828715,0.6308721374511719,0.2735375396728515,9.9461122467041
5.260002374649048,-0.020772656502618,-0.0058589543981743,0.1127848721648557,0.4644751220703125,-0.3064578125,9.772532626342771
5.2700042724609375,-0.0125168571233724,-0.0042610577441267,0.1133175043828715,0.1065419738769531,0.019752163696289,9.989207876586914
5.28000283241272,-0.0113184346328367,-0.0150468601589476,0.1121190818923359,0.2136824981689453,0.3627215515136718,9.775525378417967
5.290004253387451,-0.0187752856850586,-0.0227700273201774,0.1138501366008874,0.4291606475830078,-0.2753331909179687,9.991003527832031
5.300003290176392,-0.0105194863058129,-0.0223705531566656,0.1147822429824151,0.7799111907958984,-0.038905776977539,9.72285294189453
5.310003995895386,-0.0062584285616862,-0.0113184346328367,0.1141164527098953,0.5345055206298828,0.3172317199707031,10.070012182617187
5.320003509521484,-0.013715279613908,-0.0061252705071822,0.1135838204918795,0.3716998077392578,-0.1466448516845703,9.694721072387695
5.33000373840332,-0.010253170196805,-0.0099868540877971,0.1131843463283676,0.0526724365234375,-0.296881005859375,9.993996279907224
5.340003728866577,-0.0019973708175594,-0.0223705531566656,0.1146490849279112,0.2639607330322265,0.3256114257812499,9.7054949798584
5.350003480911255,-0.0099868540877971,-0.0275637172823201,0.1146490849279112,0.5979518646240234,-0.115520230102539,10.08677159423828
5.360004186630249,-0.0054594802346624,-0.0225037112111695,0.115314875200431,0.8062474090576172,-0.2944868041992187,9.75517466430664
5.3700032234191895,-0.0018642127630554,-0.0094542218697812,0.1161138235274547,0.5117606048583984,0.2436100189208984,9.924564431762697
5.380004167556763,-0.0062584285616862,-0.0061252705071822,0.1155811913094389,0.1233013854980468,-0.0041898529052734,9.829394915771484
5.390002965927124,-0.0037284255261109,-0.0159789665404754,0.1155811913094389,0.0161608612060546,-0.3046621612548827,9.842563024902343
5.4000043869018555,0.0018642127630554,-0.0287621397728557,0.1163801396364627,0.3776853118896484,0.0478840332031249,9.849745629882811
5.410002708435059,-0.0001331580545039,-0.0310258266994231,0.1173122460179904,0.795473501586914,0.153827456665039,9.961674557495115
5.420004844665527,-0.0019973708175594,-0.0199737081755942,0.1174454040724944,0.8804676605224608,-0.3106476654052734,9.80545289916992
5.430002450942993,0.0054594802346624,-0.0041278996896228,0.1165132976909666,0.4447229583740234,0.1017535705566406,9.879673150634764
5.440004825592041,0.003462109417103,-0.0046605319076386,0.1158475074184468,-0.0239420166015624,0.0544680877685546,9.890447058105469
5.450002193450928,0.003328951362599,-0.0211721306661299,0.1154480332549349,0.0544680877685546,-0.2477998718261718,9.80605144958496
5.460005044937134,0.0093210638152773,-0.0336889877895023,0.1154480332549349,0.5392939239501953,-0.0790086547851562,9.966462960815427
5.470002174377441,0.0071905349432139,-0.0300937203178953,0.1181111943450142,1.0366893188476562,-0.0448912811279296,9.77492682800293
5.480005264282227,0.0089215896517654,-0.0118510668508526,0.1167796137999745,0.8361749298095703,-0.0808043060302734,10.019135397338866
5.490001678466797,0.0089215896517654,0.0009321063815277,0.1173122460179904,0.3016694091796875,-0.1113303771972656,9.72943699645996
5.500005483627319,0.0118510668508526,-0.0029294771990871,0.1166464557454706,-0.0849941589355468,-0.0466869323730468,9.992799179077148
5.510001182556152,0.0142479118319239,-0.0218379209386497,0.1161138235274547,0.1221042846679687,-0.0430956298828125,9.7928833404541
5.520005702972412,0.0130494893413882,-0.0340884619530142,0.1173122460179904,0.7445967163085937,-0.1197100830078125,9.993397729492187
5.530001163482666,0.013981595722916,-0.0245010820287289,0.1163801396364627,1.1845312713623046,-0.1203086334228515,9.824007962036132
5.540006160736084,0.0165115987584912,-0.0021305288720633,0.1161138235274547,0.776319888305664,0.1065419738769531,10.004770187377927
5.550000905990601,0.017177389031011,0.0081226413247416,0.1149154010369191,0.0891840118408203,-0.1023521209716796,9.752780462646484
5.560006380081177,0.0195742340120824,-0.0043942157986307,0.1157143493639429,-0.2226607543945312,-0.1125274780273437,9.92755718383789
5.570000886917114,0.0239684498107131,-0.0263652947917844,0.1157143493639429,0.326209976196289,0.0718260498046875,9.815628256225583
5.58000636100769,0.020905814557122,-0.0324905652989667,0.1154480332549349,0.9929951385498046,-0.048482583618164,9.982623822021484
5.59000039100647,0.0213052887206339,-0.0154463343224595,0.1162469815819587,1.2413935607910156,-0.1221042846679687,9.916783276367187
5.600006818771362,0.0247673981377369,0.0099868540877971,0.1161138235274547,0.5458779785156249,0.0760159027099609,9.984419473266602
5.610000133514404,0.0237021337017052,0.0147805440499397,0.1158475074184468,-0.1209071838378906,0.0604535919189453,9.7162688873291
5.620007276535034,0.0223705531566656,-0.0050600060711505,0.1157143493639429,-0.2669534851074218,-0.2358288635253906,9.918578927612304
5.629999876022339,0.027963191445832,-0.0288952978273597,0.1169127718544785,0.5039794494628906,0.0401028778076171,9.83777462158203
5.640007257461548,0.0254331884102567,-0.0294279300453755,0.1175785621269983,1.226429800415039,0.0873883605957031,9.988010775756836
5.649999618530273,0.024367923974225,-0.003195793308095,0.1171790879634864,1.180341418457031,-0.0909796630859375,9.937732540893554
5.660007476806641,0.0267647689552963,0.0214384467751378,0.1162469815819587,0.4112041351318359,0.0155623107910156,9.84555577697754
5.669999599456787,0.0271642431188082,0.0199737081755942,0.1146490849279112,-0.3902548706054687,0.1861491790771484,9.954491952514648
5.680007696151733,0.0253000303557527,-0.006791060779702,0.115048559091423,-0.1604115112304687,-0.048482583618164,9.803657247924804
5.689999103546143,0.0275637172823201,-0.0264984528462884,0.1163801396364627,0.7104793426513671,-0.1161187805175781,9.945513696289062
5.700007915496826,0.0304931944814072,-0.0186421276305546,0.1174454040724944,1.3742717529296875,0.2986766571044921,9.913790524291992
5.709998846054077,0.0268979270098003,0.0111852765783328,0.1155811913094389,1.0582371337890624,0.1119289276123046,9.949703549194336
5.720008134841919,0.0263652947917844,0.0322242491899587,0.1161138235274547,0.019752163696289,-0.1023521209716796,9.834781869506836
5.729998588562012,0.0310258266994231,0.0190416017940665,0.1170459299089825,-0.5339069702148437,0.2412158172607421,9.893439810180665
5.740008354187012,0.0262321367372804,-0.0113184346328367,0.1166464557454706,-0.0490811340332031,0.1705868682861328,9.828796365356444
5.749998569488525,0.0267647689552963,-0.0258326625737686,0.1195759329445577,0.9738415252685546,0.0323217224121093,9.99698903198242
5.760008096694946,0.0253000303557527,-0.0078563252157337,0.1210406715441013,1.4514847564697264,-0.0975637176513671,9.994594830322264
5.769998788833618,0.0318247750264469,0.0271642431188082,0.1203748812715815,0.7691372833251953,0.5793968017578125,10.001777435302731
5.78000807762146,0.0201068662300982,0.0380832035881331,0.1197090909990617,-0.2262520568847656,-0.1993172882080078,9.81921955871582
5.78999924659729,0.0258326625737686,0.0181094954125388,0.1225054101436449,-0.5392939239501953,-0.0556651885986328,9.937133990478516
5.800007581710815,0.0280963495003359,-0.0131826473958922,0.1231712004161647,0.1879448303222656,0.5614402893066406,9.775525378417967
5.809999465942383,0.0214384467751378,-0.0185089695760507,0.1235706745796766,1.198896481323242,0.0999579193115234,10.10053825378418
5.820007562637329,0.0214384467751378,0.0089215896517654,0.1245027809612043,1.3934253662109377,-0.1125274780273437,9.864709390258788
5.829999685287476,0.0287621397728557,0.0424774193867638,0.1250354131792202,0.3459621398925781,0.5584475372314452,10.089165795898436
5.840007305145264,0.0226368692656735,0.0406132066237083,0.1250354131792202,-0.5632359405517577,0.2597708801269531,9.66658920288086
5.849999904632568,0.0198405501210903,0.0123836990688684,0.1254348873427321,-0.6260837341308594,-0.0077811553955078,10.007164389038085
5.860007047653198,0.0230363434291854,-0.0195742340120824,0.125834361506244,0.5548562347412109,0.1209071838378906,9.717465988159178
5.870000123977661,0.0262321367372804,-0.0122505410143644,0.1270327839967796,1.3862427612304686,0.7445967163085937,10.18313821105957
5.880006790161133,0.0123836990688684,0.0199737081755942,0.1270327839967796,1.2779051361083984,-0.4267664459228515,9.801263046264648
5.890000343322754,0.0274305592278161,0.0502005865479936,0.1266333098332678,-0.0700303985595703,0.4345476013183593,10.147225186157224
5.900006532669067,0.020639498448114,0.0398142582966846,0.1287638387053311,-0.8032546569824218,0.441131655883789,9.57620809020996
5.910000562667847,0.0147805440499397,0.0026631610900792,0.1303617353593787,-0.5835866546630859,-0.0335188232421874,10.184335311889647
5.920006275177002,0.0175768631945229,-0.0246342400832329,0.1322259481224341,0.7990648040771484,0.2041056915283203,9.657610946655272
5.9300007820129395,0.0169110729220031,-0.0074568510522218,0.1307612095228905,1.4993687896728514,0.6123170745849609,10.22683239135742
5.9400060176849365,0.0081226413247416,0.0322242491899587,0.1302285773048747,0.9301473449707032,0.1687912170410156,9.727641345214844
5.950001239776611,0.0101200121423011,0.0553937506736481,0.1310275256318985,-0.5087678527832031,-0.029328970336914,10.072406384277343
5.960005760192871,0.0149137021044437,0.0307595105904152,0.1311606836864025,-0.9127893829345702,0.5961562133789062,9.661800799560549
5.970001459121704,0.0051931641256545,-0.006924218834206,0.1323591061769381,-0.374094009399414,0.0778115539550781,10.234613546752929
5.980005502700806,0.0074568510522218,-0.027830033391328,0.132625422285946,1.1982979309082031,0.1334767425537109,9.543287817382812
5.990001678466797,0.0083889574337496,0.0041278996896228,0.1331580545039619,1.4173673828125,0.4189852905273437,10.472238061523436
6.00000524520874,0.0073236929977179,0.0439421579863074,0.13275858034045,0.6781576202392577,0.6530185028076172,9.643245736694336
6.01000189781189,-0.0003994741635118,0.0587227020362472,0.1319596320134262,-0.824802471923828,-0.2645592834472656,10.209474429321288
6.020004987716675,0.0114515926873407,0.0233026595381933,0.1306280514683866,-0.9169792358398436,0.6607996582031249,9.50677624206543
6.030002117156982,0.0042610577441267,-0.0123836990688684,0.1300954192503707,-0.0520738861083984,0.393247622680664,10.25376716003418
6.0400049686431885,-0.0010652644360316,-0.020905814557122,0.1328917383949539,1.3473369842529297,-0.2172738006591796,9.688137017822266
6.050002336502075,0.0063915866161901,0.0163784407039873,0.1344896350490015,1.2378022583007813,0.4632780212402344,10.3812583984375
6.060004472732544,0.0013315805450396,0.0508663768205134,0.1336906867219777,0.2196680023193359,0.5722141967773438,9.673771807861328
6.070002555847168,-0.0074568510522218,0.0540621701286085,0.1351554253215213,-1.0612298858642577,-0.0724246002197265,10.181941110229491
6.0800042152404785,-0.0017310547085515,0.0130494893413882,0.1346227931035054,-0.7625532287597656,0.1448492004394531,9.437344393920895
6.090002775192261,0.0005326322180158,-0.017177389031011,0.1335575286674737,0.2232593048095703,0.8876502655029296,10.349535226440429
6.100003957748413,-0.013715279613908,-0.0155794923769635,0.1331580545039619,1.5580267303466795,-0.1244984863281249,9.583989245605467
6.110002756118774,-0.0079894832702377,0.0295610880998795,0.1338238447764817,0.8966285217285156,-0.1681926666259765,10.56022497253418
6.120003700256348,0.0014647385995435,0.0552605926191441,0.1338238447764817,-0.1681926666259765,1.0217255584716796,9.43495019226074
6.130003452301025,-0.0163784407039873,0.0443416321498193,0.1347559511580094,-1.2114660400390624,-0.1268926879882812,10.319009155273436
6.140003442764282,-0.0077231671612297,-0.0010652644360316,0.1348891092125134,-0.5219359619140624,-0.2418143676757812,9.388861810302734
6.150003671646118,0.0025300030355752,-0.0221042370476576,0.1330248964494579,0.5811924530029297,0.9247603912353516,10.375272894287107
6.160003185272217,-0.0131826473958922,-0.0090547477062694,0.13275858034045,1.483806478881836,0.1035492218017578,9.67856021118164
6.170003652572632,-0.0105194863058129,0.0350205683345419,0.1310275256318985,0.5482721801757812,-0.297479556274414,10.360907684326172
6.180002927780151,-0.003328951362599,0.0490021640574579,0.1312938417409064,-0.5351040710449219,0.3387795349121094,9.449913952636718
6.190004110336304,-0.006924218834206,0.0246342400832329,0.1322259481224341,-1.246181964111328,0.6476315490722656,10.15201358947754
6.200002670288086,-0.0195742340120824,-0.0205063403936101,0.1356880575395371,-0.2448071197509765,-0.6512228515624999,9.61451531677246
6.2100043296813965,-0.0003994741635118,-0.0322242491899587,0.1354217414305292,1.0229226593017575,0.6631938598632812,10.15201358947754
6.220002174377441,-0.0135821215594041,-0.0025300030355752,0.1359543736485451,1.313219610595703,0.4662707733154296,9.963470208740231
6.230004549026489,-0.0183758115215467,0.0354200424980538,0.1351554253215213,0.3034650604248046,-0.3477577911376953,9.875483297729492
6.240002155303955,-0.0089215896517654,0.0379500455336291,0.1359543736485451,-0.9726444244384764,0.240018716430664,9.83837317199707
6.250004768371582,-0.0101200121423011,0.0009321063815277,0.1368864800300728,-1.0402806213378906,0.6171054779052734,9.90181951599121
6.26000189781189,-0.0227700273201774,-0.0375505713701172,0.1404817475016798,0.1238999359130859,-0.6368576416015624,9.802460147094726
6.270004987716675,-0.0027963191445832,-0.0378168874791251,0.1414138538832075,1.2006921325683593,0.4333505004882812,10.058041174316406
6.280001640319824,-0.0130494893413882,-0.0026631610900792,0.143278066646263,1.2384008087158205,0.3154360687255859,9.919177478027343
6.290005445480347,-0.0154463343224595,0.0315584589174389,0.1443433310822947,-0.0796072052001953,-0.3028665100097656,9.949703549194336
6.300001382827759,-0.0054594802346624,0.024367923974225,0.1438106988642788,-1.198896481323242,0.2442085693359375,9.717465988159178
6.3100056648254395,-0.0086552735427575,-0.0194410759575784,0.1447428052458066,-0.8271966735839843,0.2436100189208984,9.840168823242188
6.320000886917114,-0.0119842249053565,-0.0506000607115055,0.1459412277363422,0.4034229797363281,-0.2567781280517578,10.10712230834961
6.330005884170532,-0.0081226413247416,-0.0422111032777559,0.1498028113169571,1.4616601135253906,-0.0263362182617187,9.796474642944336
6.340000867843628,-0.0070573768887099,-0.0009321063815277,0.1498028113169571,1.024119760131836,0.0071826049804687,10.123881719970704
6.350006103515625,-0.0077231671612297,0.0256995045192646,0.1516670240800126,-0.1777694732666015,0.1544260070800781,9.797671743774414
6.360000371932983,-0.0127831732323803,0.0130494893413882,0.1548628173881077,-1.137844338989258,-0.5524620330810547,9.877877499389648
6.370006322860718,0.0035952674716069,-0.0299605622633914,0.1540638690610839,-0.6039373687744141,0.6081272216796875,9.637858782958984
6.380000352859497,-0.0117179087963486,-0.0515321670930332,0.1543301851700918,0.5829881042480468,-0.1807622253417968,10.013748443603514
6.3900065422058105,-0.0022636869265673,-0.0388821519151568,0.1555286076606275,1.3467384338378905,-0.0131681091308593,9.93354268798828
6.400000095367432,-0.0022636869265673,-0.0002663161090079,0.1600559815137622,0.8780734588623046,0.0131681091308593,9.910199221801758
6.410006761550903,-0.0009321063815277,0.0213052887206339,0.1623196684403295,-0.4100070343017578,-0.1352723937988281,9.925761532592771
6.420000076293945,0.0030626352535911,0.0054594802346624,0.1615207201133058,-1.1324573852539062,0.2549824768066406,9.739612353515623
6.430006980895996,-0.0043942157986307,-0.0358195166615657,0.1628523006583454,-0.507570751953125,-0.6440402465820312,9.980229620361328
6.439999580383301,0.0150468601589476,-0.0569916473276956,0.1644501973123929,1.0319009155273438,0.6272808349609375,9.860519537353516
6.450007200241089,-0.0015978966540475,-0.0274305592278161,0.1697765194925514,1.3718775512695311,-0.7541735229492187,10.379462747192385
6.459999322891235,0.0162452826494833,0.0129163312868843,0.1689775711655276,0.6560112548828124,0.5877765075683593,9.485228427124024
6.470007658004761,0.0021305288720633,0.031292142808431,0.1704423097650712,-1.054645831298828,-0.3866635681152343,10.350732327270508
6.47999906539917,0.0121173829598605,-0.0091879057607733,0.1724396805826306,-0.7984662536621093,0.0778115539550781,9.2182749420166
6.4900078773498535,0.010253170196805,-0.0360858327705736,0.1771002124902693,-0.3938461730957031,-0.3250128753662109,10.913369717407226
6.4999988079071045,0.0166447568129952,-0.0555269087281521,0.1763012641632455,1.5915455535888672,0.2196680023193359,8.948927255249023
6.510008096694946,0.0097205379787892,-0.0059921124526782,0.1806954799618763,1.0205284576416016,-0.575206948852539,11.353304272460935
6.519998788833618,0.0211721306661299,0.0193079179030744,0.1828260088339397,0.7894879974365234,0.1651999145507812,8.587402804565428
6.530008316040039,0.0159789665404754,0.0436758418772995,0.1880191729595942,-1.2707225311279295,-0.402824429321289,11.12106671142578
6.539998531341553,0.0282295075548399,-0.0037284255261109,0.1842907474334832,-0.7673416320800781,0.709880792236328,8.234856610107421
6.550008296966553,0.010253170196805,-0.031158984753927,0.1881523310140981,-0.3567360473632812,-0.8182184173583984,11.725602630615231
6.559998989105225,0.0295610880998795,-0.048869006002954,0.1904160179406655,2.068590234375,-0.0035913024902343,8.03134946899414
6.570008039474487,0.0308926686449191,0.0161121245949793,0.1934786531942566,0.7679401824951172,0.4944026428222656,11.867459078979492
6.579998970031738,0.0193079179030744,0.0346210941710301,0.1940112854122725,0.4860229370117187,-0.2741360900878906,7.924208944702148
6.590007781982422,0.0260989786827765,0.0478037415669223,0.1950765498483042,-1.5843629486083983,-0.3770867614746093,11.897985150146484
6.599999189376831,0.0326237233534706,-0.0094542218697812,0.1986718173199111,-0.3130418670654297,0.2603694305419922,7.71232209777832
6.6100077629089355,0.0323574072444627,-0.0199737081755942,0.1998702398104468,-0.0849941589355468,0.3046621612548827,11.98417640991211
6.619999170303345,0.0235689756472012,-0.0270310850643042,0.2010686623009824,1.8501193328857424,-0.5716156463623047,8.194753732299803
6.630007266998291,0.0398142582966846,0.0322242491899587,0.2031991911730458,0.4243722442626952,0.2615665313720703,12.050615505981444
6.639999628067017,0.034754252225534,0.0396811002421806,0.2075934069716766,0.4261678955078125,0.2513911743164062,7.389703424072265
6.6500067710876465,0.0328900394624785,0.0531300637470808,0.2074602489171726,-1.7483657623291016,-0.2358288635253906,12.096105337524412
6.659999847412109,0.0395479421876766,-0.0054594802346624,0.2069276166991568,-0.3447650390625,0.4285620971679687,8.084021905517577
6.670006990432739,0.0320910911354548,-0.017177389031011,0.2105228841707637,0.1580173095703125,-0.2843114471435546,11.81119533996582
6.680000066757202,0.0399474163511885,-0.0153131762679556,0.2122539388793152,1.8620903411865235,0.1035492218017578,7.994239343261718
6.690006494522095,0.0404800485692044,0.0462058449128747,0.2145176258058826,0.2573766784667968,0.2029085906982421,11.866860528564452
6.700000286102295,0.0375505713701172,0.0511326929295213,0.216514996623442,-0.2196680023193359,0.4560954162597656,8.334215979003906
6.710006237030029,0.0299605622633914,0.0424774193867638,0.2206428963130648,-1.6346411834716796,-0.6021417175292968,11.396998452758789
6.720000982284546,0.0458063707493628,-0.0098536960332931,0.2207760543675688,-0.1370680450439453,0.6775590698242188,8.090007409667969
6.730005979537964,0.0351537263890459,-0.013848437668412,0.220243422149553,0.28730419921875,0.3339911315917968,11.608286749267576
6.74000096321106,0.0310258266994231,-0.0045273738531347,0.2189118416045133,1.513733999633789,-0.1813607757568359,8.789114294433594
6.750005722045898,0.0356863586070617,0.0420779452232519,0.2238386896211599,0.2244564056396484,-0.1610100616455078,11.202469567871091
6.760001182556152,0.0396811002421806,0.0503337446024976,0.2265018507112391,-0.4656722229003906,0.4950011932373047,8.565256439208984
6.770005464553833,0.0323574072444627,0.0340884619530142,0.2258360604387194,-1.5269021087646484,0.1592144104003906,10.918158120727538
6.780001163482666,0.0322242491899587,-0.0142479118319239,0.2261023765477273,-0.1520318054199218,0.1238999359130859,8.75978532409668
6.790005207061768,0.0363521488795816,-0.0179763373580348,0.2267681668202471,0.5614402893066406,0.3333925811767578,11.004947930908202
6.800001621246338,0.0346210941710301,0.0019973708175594,0.227167640983759,1.2150573425292968,0.4477157104492187,9.111134417724609
6.810004949569702,0.0327568814079746,0.0398142582966846,0.2296976440193342,-0.1400607971191406,0.2053027923583984,10.803834991455078
6.820001840591431,0.0318247750264469,0.0346210941710301,0.2299639601283422,-0.5602431884765625,0.0945709655761718,9.079411245727538
6.830004692077637,0.0344879361165261,0.0181094954125388,0.2318281728913977,-1.0684124908447266,0.4291606475830078,10.439317788696288
6.840002059936523,0.031425300862935,-0.0162452826494833,0.2318281728913977,-0.1173158813476562,0.3902548706054687,9.20570538330078
6.850004434585571,0.0271642431188082,-0.0182426534670427,0.2343581759269729,0.5871779571533203,0.1879448303222656,10.574590182495117
6.860002279281616,0.0267647689552963,0.0030626352535911,0.234091859817965,0.7607575775146483,0.3914519714355468,9.78151088256836
6.870004177093506,0.0255663464647606,0.027963191445832,0.2336923856544531,-0.0688332977294921,0.6165069274902344,9.931747036743165
6.880002498626709,0.0155794923769635,0.0262321367372804,0.2359560725810205,-0.8870517150878906,-0.0395043273925781,9.794678991699218
6.89000391960144,0.0237021337017052,-0.0027963191445832,0.2363555467445324,-0.7523778717041015,0.9044096771240234,9.803657247924804
6.900002717971802,0.0126500151778763,-0.0247673981377369,0.2355565984175086,-0.0209492645263671,0.0634463439941406,9.84555577697754
6.910003662109375,0.0202400242846022,-0.0254331884102567,0.2344913339814769,0.8762778076171874,0.5877765075683593,9.822810861206056
6.920003175735474,0.006657902725198,0.0057257963436703,0.2367550209080442,0.4800374328613281,-0.3693056060791015,10.577582934570312
6.9300031661987305,0.0268979270098003,0.0198405501210903,0.2358229145265165,-0.0831985076904296,1.2336124053955078,9.39185456237793
6.940003156661987,0.0009321063815277,0.0150468601589476,0.2362223886900284,-0.9379285003662108,-0.3220201232910156,10.244190353393554
6.950003385543823,0.0151800182134516,-0.0133158054503961,0.2358229145265165,-0.5333084197998047,0.5195417602539062,9.527126956176756
6.960003614425659,0.0101200121423011,-0.0300937203178953,0.2347576500904848,0.0802057556152343,0.9235632904052734,10.333374365234375
6.970002889633179,-0.0013315805450396,-0.0272974011733121,0.2327602792729254,0.5925649108886718,0.0077811553955078,9.788693487548828
6.980003833770752,0.0085221154882535,-0.0062584285616862,0.2302302762373501,0.4680664245605468,0.7050923889160156,9.85752678527832
6.990002632141113,-0.0019973708175594,0.0106526443603169,0.2324939631639175,-0.3471592407226562,0.0628477935791015,9.930549935913085
7.000004053115845,0.0058589543981743,0.0006657902725198,0.2315618567823897,-0.8313865264892578,1.0821791503906248,10.128670123291014
7.010002374649048,-0.017310547085515,-0.0250337142467448,0.2324939631639175,-0.5566518859863281,-0.7080851409912109,9.76774422302246
7.0200042724609375,0.0099868540877971,-0.041944787168748,0.2291650118013184,0.3345896820068359,1.246780514526367,9.78031378173828
7.030002117156982,-0.0170442309765071,-0.031292142808431,0.2327602792729254,0.852934341430664,0.2627636322021484,9.913191973876952
7.0400049686431885,-0.0083889574337496,-0.0021305288720633,0.2283660634742946,0.1993172882080078,0.5811924530029297,10.171765753173828
7.050001859664917,-0.0131826473958922,0.0038615835806148,0.2291650118013184,-0.6236895324707031,0.5225345123291015,9.840168823242188
7.060004949569702,-0.0195742340120824,-0.0161121245949793,0.2274339570927669,-0.8499415893554687,0.0664390960693359,10.001777435302731
7.070001602172852,-0.0107858024148209,-0.0423442613322598,0.2250371121116956,-0.2322375610351562,0.8044517578125,9.66539210205078
7.080005168914795,-0.024234765919721,-0.0502005865479936,0.2263686926567352,0.5877765075683593,0.086191259765625,9.952696301269532
7.090001583099365,-0.0175768631945229,-0.0331563555714865,0.227167640983759,0.6667851623535156,0.3998316772460937,10.110713610839843
7.100005388259888,-0.0217047628841457,-0.0106526443603169,0.2250371121116956,0.077213003540039,0.3345896820068359,9.916783276367187
7.1100013256073,-0.0214384467751378,-0.010253170196805,0.223572373512152,-0.5147533569335937,0.4710591766357421,9.826402163696288
7.1200056076049805,-0.0258326625737686,-0.0270310850643042,0.2231728993486401,-0.7260416534423828,0.1771709228515625,10.0748005859375
7.130001068115234,-0.0191747598485705,-0.0528637476380728,0.2207760543675688,0.1322796417236328,0.690128628540039,9.850344180297853
7.140005826950073,-0.0303600364269033,-0.0519316412565451,0.2218413188036005,0.7918821990966797,-0.0383072265625,10.155604891967773
7.150000810623169,-0.0247673981377369,-0.0266316109007923,0.2214418446400886,0.5584475372314452,0.2406172668457031,9.980229620361328
7.160006046295166,-0.0259658206282725,-0.0115847507418446,0.2193113157680252,-0.0802057556152343,0.6194996795654296,9.776123928833009
7.1700005531311035,-0.0387489938606529,-0.0166447568129952,0.220110264095049,-0.7661445312499999,-0.0993593688964843,10.083180291748048
7.180006265640259,-0.0287621397728557,-0.0460726868583708,0.2191781577135213,-0.3088520141601562,0.412401235961914,9.841365924072266
7.190000295639038,-0.0368847810975974,-0.0587227020362472,0.2215750026945926,0.3950432739257812,0.0682347473144531,10.045471615600585
7.20000696182251,-0.0308926686449191,-0.0490021640574579,0.2195776318770332,0.939125601196289,0.5021837982177734,9.980229620361328
7.210000038146973,-0.0431432096592836,-0.0226368692656735,0.220243422149553,0.4171896392822265,-0.1939303344726562,10.03529625854492
7.220006942749023,-0.0335558297349984,-0.0133158054503961,0.2185123674410015,-0.240018716430664,0.5165490081787109,9.860519537353516
7.229999780654907,-0.0434095257682915,-0.024367923974225,0.2197107899315371,-0.6985083343505859,-0.0448912811279296,10.137049829101562
7.240007162094116,-0.034754252225534,-0.052197957365553,0.2177134191139777,-0.1274912384033203,0.3920505218505859,9.637260232543944
7.249999761581421,-0.0420779452232519,-0.0607200728538066,0.2193113157680252,0.5901707092285156,-0.0544680877685546,10.290278735351562
7.260007381439209,-0.0354200424980538,-0.0472711093489064,0.2175802610594737,1.1079168182373047,0.1879448303222656,9.812036953735351
7.269999265670776,-0.0374174133156132,-0.017443705140019,0.2179797352229856,0.4189852905273437,0.1975216369628906,10.108319409179687
7.280007600784302,-0.0368847810975974,-0.0091879057607733,0.2169144707869539,-0.3974374755859374,0.1586158599853515,9.727641345214844
7.289998769760132,-0.0366184649885895,-0.0300937203178953,0.216648154677946,-0.6512228515624999,0.2286462585449218,10.03589480895996
7.300007581710815,-0.0391484680241648,-0.055926382891664,0.2157160482964182,-0.0053869537353515,-0.1705868682861328,9.740210903930665
7.309998989105225,-0.031158984753927,-0.0619184953443422,0.2149170999693945,0.7577648254394531,0.6380547424316406,10.03529625854492
7.320008039474487,-0.0463390029673787,-0.0422111032777559,0.21678131273245,0.9139864837646484,-0.5099649536132812,9.93294413757324
7.32999849319458,-0.0307595105904152,-0.020905814557122,0.2170476288414579,0.2448071197509765,0.36391865234375,9.97304701538086
7.340008497238159,-0.0439421579863074,-0.0195742340120824,0.2185123674410015,-0.3878606689453124,-0.278325942993164,9.767145672607422
7.349998474121094,-0.0359526747160697,-0.0395479421876766,0.2190449996590173,-0.4632780212402344,0.0,9.90840357055664
7.360008239746094,-0.0380832035881331,-0.0605869147993026,0.2186455254955054,0.2597708801269531,0.0143652099609375,9.84435867614746
7.3699986934661865,-0.0371510972066053,-0.0607200728538066,0.2190449996590173,0.8696937530517578,-0.0562637390136718,10.011952792358398
7.380007743835449,-0.0352868844435499,-0.0388821519151568,0.2197107899315371,0.843956085205078,-0.0383072265625,9.879673150634764
7.389998912811279,-0.034887410280038,-0.0198405501210903,0.2187786835500094,0.134673843383789,-0.0508767852783203,9.97903251953125
7.400007486343384,-0.0284958236638478,-0.0222373951021616,0.21678131273245,-0.4064157318115234,0.1897404815673828,9.907206469726562
7.409999370574951,-0.0334226716804944,-0.0443416321498193,0.2182460513319935,-0.1699883178710937,-0.603338818359375,9.873089096069336
7.4200074672698975,-0.0193079179030744,-0.0581900698182313,0.2185123674410015,0.670975015258789,0.0957680664062499,9.841964474487304
7.429999589920044,-0.0254331884102567,-0.045406896585851,0.2206428963130648,0.9193734375,-0.2992752075195312,10.03469770812988
7.440007209777832,-0.0179763373580348,-0.0253000303557527,0.2189118416045133,0.623090982055664,0.0814028564453124,9.77971523132324
7.449999570846558,-0.0226368692656735,-0.013848437668412,0.2197107899315371,-0.0700303985595703,-0.6111199737548828,9.98561657409668
7.4600067138671875,-0.0095873799242852,-0.0246342400832329,0.2214418446400886,-0.297479556274414,0.3309983795166015,9.832986218261718
7.4700000286102295,-0.0195742340120824,-0.0442084740953153,0.2198439479860411,0.0502782348632812,-0.3040636108398437,9.893439810180665
7.480006456375122,-0.0107858024148209,-0.0543284862376164,0.2189118416045133,0.9109937316894532,-0.0849941589355468,9.826402163696288
7.490000247955322,-0.0145142279409318,-0.0328900394624785,0.2226402671306243,1.0498574279785156,-0.4381389038085937,10.040084661865231
7.500006198883057,-0.0045273738531347,-0.0089215896517654,0.2223739510216164,0.575206948852539,0.2232593048095703,9.616909518432616
7.510000467300415,-0.0101200121423011,0.0013315805450396,0.2233060574031441,-0.4387374542236328,-0.2962824554443359,10.168174450683592
7.52000617980957,-0.0070573768887099,-0.024367923974225,0.2257029023842154,-0.2202665527343749,-0.5542576843261718,9.526528405761718
7.530000686645508,0.0030626352535911,-0.0408795227327163,0.2255697443297114,0.2053027923583984,0.0029927520751953,10.241796151733398
7.540005922317505,0.0047936899621426,-0.0446079482588272,0.2227734251851282,1.254561669921875,0.2118868469238281,9.3715038482666
7.550000905990601,-0.0030626352535911,-0.0133158054503961,0.2255697443297114,0.9433154541015624,-0.8391676818847655,10.498574279785156
7.5600056648254395,0.013981595722916,0.0054594802346624,0.2263686926567352,0.4243722442626952,0.0981622680664062,9.409212524414064
7.5700013637542725,0.0115847507418446,0.010253170196805,0.2233060574031441,-0.5710170959472656,0.2699462371826172,10.259154113769531
7.580005168914795,0.0035952674716069,-0.0169110729220031,0.223439215457648,-0.2142810485839843,-0.6985083343505859,9.25837781982422
7.590001344680786,0.0165115987584912,-0.0344879361165261,0.2257029023842154,0.3597287994384765,-0.373495458984375,10.383652600097657
7.6000049114227295,0.0250337142467448,-0.0336889877895023,0.2222407929671124,1.2312182037353514,0.594959112548828,9.47505307006836
7.610001564025879,0.0095873799242852,-0.0007989483270237,0.2227734251851282,0.7589619262695312,-0.6500257507324219,10.43871923828125
7.620004892349243,0.020639498448114,0.0147805440499397,0.2249039540571916,0.3148375183105468,-0.6811503723144531,9.154230047607422
7.630002021789551,0.0343547780620221,0.0159789665404754,0.2243713218391758,-0.6889315277099609,0.8637082489013671,10.592546694946288
7.640004396438599,0.0150468601589476,-0.0163784407039873,0.2230397412941361,0.0155623107910156,-0.3764882110595703,9.196128576660156
7.6500022411346436,0.0225037112111695,-0.0266316109007923,0.2243713218391758,0.699705435180664,-0.8206126190185546,10.359112033081054
7.660004138946533,0.0407463646782123,-0.0129163312868843,0.2241050057301678,1.275510934448242,0.6290764862060546,9.525929855346678
7.670002460479736,0.0255663464647606,0.0182426534670427,0.2217081607490965,0.5416881256103515,0.1544260070800781,10.365097537231446
7.680004119873047,0.0202400242846022,0.0254331884102567,0.2222407929671124,-0.1340752929687499,-1.216254443359375,9.427767587280274
7.690002679824829,0.0467384771308906,0.0126500151778763,0.2219744768581044,-0.6111199737548828,0.5787982513427734,10.143035333251952
7.7000038623809814,0.0336889877895023,-0.0163784407039873,0.2218413188036005,0.1107318267822265,0.4393360046386718,9.739612353515623
7.710002899169922,0.0226368692656735,-0.0219710789931537,0.2225071090761203,1.0277110626220702,-1.2671312286376952,10.046668716430665
7.720003843307495,0.0498011123844817,0.0005326322180158,0.2229065832396322,1.227626901245117,0.3758896606445312,9.872490545654296
7.730003118515015,0.0423442613322598,0.031158984753927,0.2221076349126085,0.5572504364013672,0.8152256652832031,9.84376012573242
7.740003347396851,0.0253000303557527,0.0402137324601964,0.2207760543675688,-0.6069301208496093,-1.0983400115966797,9.99698903198242
7.750003337860107,0.0511326929295213,0.0131826473958922,0.2207760543675688,-0.680551821899414,0.0652419952392578,9.574412438964844
7.760003089904785,0.0483363737849381,-0.0182426534670427,0.2195776318770332,0.2070984436035156,0.7140706451416016,10.11909331665039
7.7700035572052,0.0344879361165261,-0.0195742340120824,0.2197107899315371,1.356913790893555,-0.8349778289794921,9.740210903930665
7.78000283241272,0.0511326929295213,0.0167779148674992,0.2186455254955054,1.1258733306884765,-0.1771709228515625,10.248978756713866
7.790003776550293,0.0553937506736481,0.0446079482588272,0.220110264095049,0.2789244934082031,0.776319888305664,9.609128363037108
7.800002574920654,0.0394147841331727,0.0462058449128747,0.2191781577135213,-0.928351693725586,-0.3848679168701172,10.225635290527345
7.810003995895386,0.0524642734745609,0.0070573768887099,0.2158492063509222,-0.5183446594238281,-0.1023521209716796,9.289502441406247
7.820002317428589,0.0541953281831125,-0.017310547085515,0.21678131273245,0.3363853332519531,0.4441244079589843,10.57339308166504
7.830004453659058,0.0495347962754738,-0.0123836990688684,0.2153165741329064,1.5065513946533202,-0.028730419921875,9.460089309692382
7.840002059936523,0.0531300637470808,0.0274305592278161,0.2137186774788588,0.8690952026367187,-0.1466448516845703,10.366294638061524
7.85000467300415,0.0576574376002155,0.0478037415669223,0.2147839419148905,-0.0245405670166015,0.2172738006591796,9.437344393920895
7.860001564025879,0.052331115420057,0.0392816260786687,0.216514996623442,-0.948702407836914,0.0640448944091796,10.264541067504885
7.870004892349243,0.0548611184556323,0.0006657902725198,0.2163818385689381,-0.3555389465332031,0.1765723724365234,9.507374792480467
7.880001783370972,0.0520647993110491,-0.0182426534670427,0.2153165741329064,0.7068880401611328,0.058059390258789,10.338761318969723
7.890005111694336,0.0533963798560887,-0.003462109417103,0.2162486805144341,1.5035586425781249,0.2525882751464843,9.766547122192382
7.900001287460327,0.0515321670930332,0.0387489938606529,0.2153165741329064,0.6350619903564453,0.1244984863281249,10.313622201538085
7.910005331039429,0.0506000607115055,0.0499342704389857,0.2142513096968747,-0.421978042602539,0.2064998931884765,9.501389288330078
7.920001029968262,0.0479368996214262,0.0288952978273597,0.2157160482964182,-1.05344873046875,-0.125097036743164,10.108319409179687
7.930005788803101,0.0533963798560887,-0.0113184346328367,0.2158492063509222,-0.0658405456542968,0.3094505645751953,9.779116680908205
7.940000772476196,0.0467384771308906,-0.0221042370476576,0.2161155224599301,1.1109095703125,-0.0329202728271484,10.259154113769531
7.950006008148193,0.0520647993110491,0.0070573768887099,0.2158492063509222,1.389834063720703,0.2741360900878906,9.943718045043944
7.960000514984131,0.0503337446024976,0.045273738531347,0.2162486805144341,0.3256114257812499,0.5087678527832031,9.89643256225586
7.970006227493286,0.045406896585851,0.0504669026570015,0.2134523613698509,-0.9133879333496092,0.1610100616455078,10.031106405639648
7.980000257492065,0.0495347962754738,0.0146473859954358,0.2106560422252677,-0.9157821350097656,0.3327940307617187,9.752780462646484
7.990006446838379,0.0472711093489064,-0.0210389726116259,0.2101234100072518,0.134673843383789,0.4010287780761719,10.06881508178711
8.0,0.0448742643678351,-0.0222373951021616,0.2101234100072518,1.3144167114257812,0.1454477508544921,9.833584768676758
8.010006666183472,0.0463390029673787,0.013715279613908,0.2094576197347321,1.151610998535156,0.2501940734863281,10.289680184936524
8.019999980926514,0.0434095257682915,0.045140580476843,0.2117213066612994,0.0604535919189453,0.2711433380126953,9.74140800476074
8.030006885528564,0.0414121549507321,0.0395479421876766,0.2121207808248113,-1.0839748016357422,0.5764040496826172,10.03050785522461
8.03999948501587,0.0360858327705736,-0.0005326322180158,0.2118544647158034,-0.7433996154785156,0.239420166015625,9.682151513671874
8.050007104873657,0.0379500455336291,-0.0315584589174389,0.2107892002797717,0.3417722869873046,0.6177040283203125,10.141239682006836
8.059999227523804,0.0295610880998795,-0.0235689756472012,0.2110555163887796,1.3910311645507811,0.3417722869873046,9.86291373901367
8.07000732421875,0.0283626656093438,0.0153131762679556,0.2090581455712201,0.9085995300292968,0.326209976196289,10.161590396118164
8.079998970031738,0.0272974011733121,0.038349519697141,0.2089249875167162,-0.2896984008789062,0.5195417602539062,9.766547122192382
8.090007781982422,0.0181094954125388,0.0219710789931537,0.2121207808248113,-1.064821188354492,-0.0311246215820312,10.06223102722168
8.099998712539673,0.0266316109007923,-0.017310547085515,0.2119876227703073,-0.4638765716552734,0.6410474945068358,9.747393508911133
8.110007762908936,0.0183758115215467,-0.0379500455336291,0.2126534130428271,0.6590040069580078,0.4135983367919921,10.0748005859375
8.119998216629028,0.0146473859954358,-0.0218379209386497,0.2111886744432835,1.350329736328125,0.2843114471435546,9.949104998779296
8.130008220672607,0.0158458084859714,0.0154463343224595,0.2082591972441964,0.6189011291503906,0.4848258361816406,10.17715270690918
8.139998197555542,0.0146473859954358,0.027963191445832,0.2057291942086211,-0.5476736297607422,0.7715314849853515,9.753977563476562
8.150008201599121,0.0053263221801584,0.003462109417103,0.2057291942086211,-0.9624690673828123,0.1167173309326171,9.903016616821288
8.159998416900635,0.0087884315972614,-0.0340884619530142,0.206128668372133,-0.0987608184814453,0.0897825622558593,9.900622415161132
8.170008182525635,0.0123836990688684,-0.0443416321498193,0.2065281425356449,1.0205284576416016,0.8918401184082031,10.005368737792969
8.179998874664307,-0.0039947416351188,-0.0177100212490269,0.2090581455712201,1.2024877838134764,-0.1394622467041015,9.950302099609374
8.19000768661499,0.0057257963436703,0.013715279613908,0.2082591972441964,0.3232172241210937,0.5297171173095703,9.85812533569336
8.1999990940094,-0.0027963191445832,0.0153131762679556,0.2085255133532043,-0.7930792999267577,0.6817489227294922,9.938929641723632
8.210007429122925,-0.0090547477062694,-0.0186421276305546,0.2057291942086211,-0.7972691528320313,0.479438882446289,9.700706576538083
8.219999313354492,-0.0131826473958922,-0.0516653251475372,0.2082591972441964,0.1454477508544921,0.0736217010498046,9.95329485168457
8.23000717163086,-0.0090547477062694,-0.0563258570551758,0.2063949844811409,1.1725602630615233,0.7829039428710937,9.880870251464843
8.239999771118164,-0.0213052887206339,-0.0247673981377369,0.2089249875167162,1.1061211669921875,0.1490390533447265,10.08737014465332
8.250006914138794,-0.0210389726116259,0.0006657902725198,0.2115881486067954,0.1526303558349609,-0.0323217224121093,9.70429787902832
8.259999752044678,-0.0167779148674992,-0.003328951362599,0.2139849935878668,-0.74699091796875,0.7044938385009765,9.913191973876952
8.270006895065308,-0.027830033391328,-0.0387489938606529,0.2142513096968747,-0.527322915649414,0.3088520141601562,9.765350021362304
8.27999997138977,-0.0263652947917844,-0.0652474467069413,0.2137186774788588,0.5668272430419922,0.2292448089599609,9.91438907470703
8.290006399154663,-0.0263652947917844,-0.0563258570551758,0.2139849935878668,1.22583125,0.4201823913574218,9.892242709350583
8.300000190734863,-0.027963191445832,-0.027830033391328,0.2099902519527479,0.9534908111572266,0.6069301208496093,9.884461553955076
8.310006141662598,-0.0366184649885895,-0.0081226413247416,0.2103897261162598,-0.2448071197509765,-0.1173158813476562,9.8449572265625
8.320000648498535,-0.031425300862935,-0.0268979270098003,0.2099902519527479,-0.6554127044677734,0.2154781494140625,9.638457333374022
8.330005884170532,-0.0328900394624785,-0.0611195470173185,0.2111886744432835,-0.1981201873779296,0.3375824340820312,9.913191973876952
8.340000629425049,-0.0371510972066053,-0.0792290424298573,0.2127865710973311,0.9044096771240234,0.2316390106201172,9.82580361328125
8.350005626678467,-0.0390153099696608,-0.0601874406357907,0.2149170999693945,1.3760674041748049,0.038905776977539,9.956886154174803
8.360000848770142,-0.0352868844435499,-0.0295610880998795,0.2135855194243548,0.7404068634033203,0.4824316345214843,9.846752877807615
8.37000560760498,-0.041944787168748,-0.0189084437395625,0.2113218324977875,-0.3705027069091797,0.3591302490234375,9.815628256225583
8.380001306533813,-0.045406896585851,-0.0431432096592836,0.2114549905522915,-0.6482300994873047,-0.1376665954589843,9.625887774658205
8.390005111694336,-0.0394147841331727,-0.0778974618848177,0.2119876227703073,0.125097036743164,0.1753752716064453,9.905410818481444
8.400001764297485,-0.0422111032777559,-0.0877511579181108,0.2149170999693945,1.2515689178466796,0.2436100189208984,9.868300692749022
8.41000485420227,-0.0468716351853945,-0.0631169178348779,0.2181128932774896,1.4149731811523436,-0.2005143890380859,9.944316595458984
8.420001745223999,-0.0444747902043232,-0.0319579330809508,0.2182460513319935,0.7230489013671875,0.029328970336914,9.74320365600586
8.430004358291626,-0.0414121549507321,-0.0255663464647606,0.2195776318770332,-0.4381389038085937,0.5039794494628906,9.879074600219726
8.440001964569092,-0.0503337446024976,-0.0555269087281521,0.2191781577135213,-0.4680664245605468,-0.1616086120605468,9.53131680908203
8.45000433921814,-0.0442084740953153,-0.0876179998636069,0.2177134191139777,0.3519476440429687,-0.0820014068603515,9.970652813720704
8.460002183914185,-0.0407463646782123,-0.0925448478802535,0.216514996623442,1.4149731811523436,0.3292027282714843,9.8449572265625
8.470004081726074,-0.0480700576759302,-0.0641821822709096,0.2173139449504658,1.4784195251464842,-0.2657563842773437,9.974842666625976
8.480002403259277,-0.0440753160408113,-0.0343547780620221,0.2178465771684817,0.6602011077880859,-0.2837128967285156,9.735422500610351
8.490003824234009,-0.0378168874791251,-0.0304931944814072,0.2195776318770332,-0.3184288208007812,0.230441909790039,9.827599264526366
8.50000262260437,-0.0428768935502757,-0.0599211245267828,0.2177134191139777,-0.3597287994384765,-0.0640448944091796,9.745597857666016
8.510003566741943,-0.0403468905147004,-0.0882837901361267,0.2173139449504658,0.6428431457519531,-0.3938461730957031,9.82520506286621
8.520003080368042,-0.0318247750264469,-0.0857537871005514,0.2154497321874103,1.495178936767578,0.1951274353027343,9.965265859985353
8.530003309249878,-0.0378168874791251,-0.0577905956547194,0.216514996623442,1.4299369415283203,-0.0760159027099609,9.851541281127927
8.540003061294556,-0.0368847810975974,-0.0316916169719429,0.2161155224599301,0.5279214660644531,-0.3914519714355468,9.859322436523437
8.550003051757812,-0.0315584589174389,-0.0335558297349984,0.2161155224599301,-0.1849520782470703,-0.038905776977539,9.749189160156249
8.560003280639648,-0.0319579330809508,-0.0611195470173185,0.2163818385689381,-0.0478840332031249,-0.0586579406738281,9.765350021362304
8.570003032684326,-0.0336889877895023,-0.0830906260104722,0.2162486805144341,0.8661024505615234,-0.3860650177001953,9.909600671386718
8.58000373840332,-0.0259658206282725,-0.0749679846857305,0.2178465771684817,1.5729904907226562,-0.1101332763671874,9.92037457885742
8.590002536773682,-0.0258326625737686,-0.0455400546403549,0.2186455254955054,1.351526837158203,0.019752163696289,9.91977602844238
8.600003957748413,-0.0270310850643042,-0.0238352917562091,0.2174471030049698,0.4997895965576172,-0.2190694519042968,9.830592016601562
8.610002279281616,-0.0246342400832329,-0.0290284558818636,0.2169144707869539,-0.1083376251220703,-0.3076549133300781,9.770736975097655
8.620004177093506,-0.0167779148674992,-0.0545948023466243,0.2153165741329064,0.1274912384033203,0.0831985076904296,9.886855755615231
8.63000202178955,-0.0199737081755942,-0.0727042977591632,0.2147839419148905,1.0863690032958984,-0.374094009399414,9.837176071166992
8.640004396438599,-0.0161121245949793,-0.059388492308767,0.2141181516423707,1.5574281799316405,-0.4465186096191406,10.105326657104492
8.650001764297485,-0.0081226413247416,-0.0303600364269033,0.2150502580238985,1.2862848419189452,-0.0359130249023437,9.782707983398437
8.660004377365112,-0.0114515926873407,-0.0117179087963486,0.2178465771684817,0.469263525390625,-0.3196259216308593,10.015544094848632
8.67000150680542,-0.0065247446706941,-0.0210389726116259,0.2158492063509222,0.0077811553955078,-0.3244143249511718,9.712079034423828
8.680004835128784,-0.0003994741635118,-0.0404800485692044,0.2142513096968747,0.2914940521240234,0.0131681091308593,9.988609326171874
8.690001249313354,-0.003328951362599,-0.0553937506736481,0.2134523613698509,1.2096703887939453,-0.2831143463134765,9.788693487548828
8.700005054473877,0.0027963191445832,-0.0386158358061489,0.2119876227703073,1.4879963317871092,-0.2717418884277343,10.153210690307615
8.71000075340271,0.0042610577441267,-0.0133158054503961,0.2127865710973311,1.159392153930664,-0.2286462585449218,9.809044201660155
8.72000527381897,0.0047936899621426,-0.0005326322180158,0.2143844677513786,0.393247622680664,-0.2525882751464843,10.066420880126952
8.730000972747803,0.0082557993792456,-0.0091879057607733,0.2146507838603865,0.1394622467041015,-0.3028665100097656,9.77492682800293
8.740005731582642,0.0135821215594041,-0.0283626656093438,0.2127865710973311,0.5117606048583984,-0.0849941589355468,9.948506448364258
8.750000476837158,0.0143810698864278,-0.0340884619530142,0.2133192033153469,1.1821370697021485,-0.2466027709960937,9.943119494628906
8.760006189346313,0.0193079179030744,-0.0194410759575784,0.2123870969338192,1.3940239166259765,-0.1759738220214843,10.01075569152832
8.770000219345093,0.0205063403936101,0.0027963191445832,0.2122539388793152,1.0390835205078124,-0.2064998931884765,9.950900650024414
8.780006170272827,0.0233026595381933,0.0110521185238288,0.2129197291518351,0.4147954376220703,-0.1173158813476562,9.954491952514648
8.789999961853027,0.0253000303557527,0.0005326322180158,0.2122539388793152,0.2178723510742187,-0.1592144104003906,9.917381826782226
8.80000638961792,0.027963191445832,-0.0135821215594041,0.2118544647158034,0.5662286926269531,-0.1448492004394531,10.003573086547853
8.809999704360962,0.0300937203178953,-0.0159789665404754,0.2114549905522915,1.1456254943847657,-0.2310404602050781,9.983222372436522
8.820006370544434,0.0307595105904152,-0.0014647385995435,0.2121207808248113,1.2952630981445312,-0.15322890625,10.052055670166014
8.829999446868896,0.0335558297349984,0.0163784407039873,0.2138518355333628,0.947505307006836,-0.0694318481445312,9.911994873046874
8.840006828308105,0.0336889877895023,0.0247673981377369,0.213186045260843,0.3872621185302734,-0.1484405029296875,9.986813674926758
8.849999189376831,0.0379500455336291,0.0153131762679556,0.2115881486067954,0.2364274139404296,0.0736217010498046,9.89583401184082
8.860007047653198,0.0355532005525578,0.0017310547085515,0.2102565680617558,0.5835866546630859,-0.1861491790771484,10.029310754394531
8.869998693466187,0.0395479421876766,0.0009321063815277,0.2087918294622122,1.014542953491211,-0.028730419921875,9.9461122467041
8.880007266998291,0.0408795227327163,0.013981595722916,0.2078597230806845,1.1360486877441405,-0.086789810180664,10.037690460205075
8.8899986743927,0.04167847105974,0.0308926686449191,0.2077265650261805,0.7984662536621093,-0.0700303985595703,9.966462960815427
8.900007486343384,0.0422111032777559,0.0351537263890459,0.2074602489171726,0.3884592193603515,-0.0999579193115234,9.944915145874022
8.909998416900635,0.045406896585851,0.0284958236638478,0.2070607747536607,0.2567781280517578,0.1669955657958984,9.967061511230469
8.920008182525635,0.0447411063133312,0.0183758115215467,0.2066613005901488,0.5386953735351562,0.0843956085205078,9.925162982177731
8.92999815940857,0.045406896585851,0.0187752856850586,0.2049302458815974,0.9235632904052734,-0.086789810180664,10.019135397338866
8.940008163452148,0.0484695318394421,0.0287621397728557,0.2022670847915181,0.9187748870849608,0.1873462799072265,10.022128149414062
8.949998140335083,0.0443416321498193,0.0392816260786687,0.2008023461919745,0.679953271484375,-0.0029927520751953,10.002974536132813
8.960007905960083,0.0466053190763866,0.0435426838227955,0.2024002428460221,0.2669534851074218,0.048482583618164,9.95329485168457
8.969998359680176,0.045273738531347,0.0335558297349984,0.2030660331185419,0.3106476654052734,0.0454898315429687,9.94730934753418
8.980007648468018,0.0462058449128747,0.0282295075548399,0.2022670847915181,0.6087257720947266,0.326209976196289,10.04247886352539
8.989998817443848,0.0428768935502757,0.0307595105904152,0.2012018203554864,0.8379705810546875,0.0814028564453124,9.968258612060549
9.000007390975952,0.0450074224223391,0.041811629114244,0.199071291483423,0.7362170104980469,0.2274491577148437,10.014346994018554
9.00999903678894,0.0427437354957717,0.0512658509840253,0.1969407626113596,0.4327519500732422,0.2501940734863281,9.942520944213866
9.020007371902466,0.0400805744056925,0.04873584794845,0.1941444434667764,0.1490390533447265,0.1472434020996093,9.993397729492187
9.029999256134033,0.0400805744056925,0.0410126807872202,0.1944107595757844,0.2914940521240234,0.0682347473144531,9.879673150634764
9.040006875991821,0.0420779452232519,0.0354200424980538,0.1937449693032645,0.5428852264404297,0.2735375396728515,10.052055670166014
9.049999475479126,0.0392816260786687,0.0395479421876766,0.1938781273577685,0.7781155395507812,0.2442085693359375,9.970652813720704
9.060006380081177,0.038216361642637,0.0500674284934896,0.1926797048672328,0.6266822845458984,0.153827456665039,9.981426721191406
9.070000171661377,0.0391484680241648,0.0564590151096798,0.1894839115591378,0.2663549346923828,0.4441244079589843,9.955689053344726
9.08000636100769,0.0339553038985102,0.0536626959650966,0.1878860149050902,0.0448912811279296,0.297479556274414,9.948506448364258
9.09000015258789,0.0336889877895023,0.0428768935502757,0.1865544343600506,0.2029085906982421,0.1801636749267578,9.9215716796875
9.100006103515625,0.0328900394624785,0.0374174133156132,0.1853560118695149,0.4704606262207031,0.2418143676757812,9.974244116210937
9.110000371932983,0.0307595105904152,0.0414121549507321,0.1849565377060031,0.6314706878662109,0.3082534637451172,9.888052856445311
9.12000584602356,0.0275637172823201,0.0498011123844817,0.1845570635424911,0.4513070129394531,0.1131260284423828,9.94072529296875
9.130000591278076,0.0283626656093438,0.0539290120741045,0.1848233796514991,0.1418564483642578,0.3519476440429687,9.90122096557617
